"Timestamp","Accelerometer X","Accelerometer Y","Accelerometer Z","Gyroscope X","Gyroscope Y","Gyroscope Z","System Timestamp"
1927.7649,0.1460597,0.022002384,9.41964,120.0,2.5454545,2.5454545,1400729739968
1945.343,-0.3342313,0.16646081,9.451665,206.90909,93.818184,1.0909091,1400729739969
1962.9211,-0.073347725,0.082989044,9.414883,5.090909,-4.7272725,-0.36363637,1400729739978
1980.4993,-0.18096575,0.24742332,9.23418,0.36363637,3.6363637,0.72727275,1400729739985
1998.0774,-0.09361936,0.15039217,9.538456,-1.4545455,-0.72727275,0.0,1400729739987
2015.6555,-0.13747427,0.14961624,9.318855,0.0,0.0,0.72727275,1400729739992
2033.2336,-0.32629934,0.19634789,9.233081,0.0,0.72727275,0.36363637,1400729739995
2050.8118,-0.34522998,0.22784427,9.454844,-0.36363637,0.0,0.36363637,1400729739997
2068.39,-0.27336586,0.21156356,9.333312,-0.36363637,0.0,0.0,1400729740012
2085.968,-0.25060853,0.10353721,9.417683,-0.72727275,0.0,0.0,1400729740013
2103.5461,-0.07750477,0.40482634,9.321016,-0.36363637,0.0,0.0,1400729740043
2121.1243,-0.07510655,0.32077828,9.47679,0.0,0.36363637,0.72727275,1400729740077
2138.7024,-0.11844645,0.107890174,9.096579,0.0,0.0,0.36363637,1400729740080
2156.2805,-0.14694154,0.17609534,9.440274,-0.36363637,-0.36363637,-0.36363637,1400729740084
2173.8586,-0.26133323,0.23080973,9.5141535,-0.36363637,0.0,0.36363637,1400729740117
2191.4368,-0.35430858,0.21340454,9.574213,0.0,0.36363637,0.72727275,1400729740120
2209.015,-0.28273985,0.24927476,9.475291,0.36363637,0.72727275,0.72727275,1400729740154
2226.593,-0.19853017,0.1035111,9.417161,0.36363637,0.36363637,0.72727275,1400729740155
2244.1711,-0.2508165,0.19911298,9.492464,0.36363637,0.72727275,0.72727275,1400729740187
2261.7493,-0.31313175,0.26453218,9.576358,0.0,0.36363637,0.36363637,1400729740190
2279.3274,-0.18973339,0.09498539,9.246647,0.36363637,0.72727275,0.72727275,1400729740223
2296.9055,-0.16843756,0.16186644,9.359777,0.72727275,0.36363637,1.0909091,1400729740224
2314.4836,-0.17636755,0.12124845,9.567826,-0.36363637,0.0,0.0,1400729740257
2332.0618,-0.29344898,0.29070002,9.48747,-0.36363637,-0.72727275,0.0,1400729740261
2349.64,-0.31567183,0.079305075,9.137122,-0.36363637,0.0,0.0,1400729740290
2367.218,-0.116287276,0.29111245,9.495719,0.0,0.0,0.36363637,1400729740324
2384.7961,-0.23152824,0.29839236,9.437235,-0.36363637,-0.36363637,0.0,1400729740330
2402.3743,-0.3271603,0.21329887,9.163937,0.0,0.36363637,0.36363637,1400729740333
2419.9524,-0.10428575,-0.044262595,9.31883,0.0,0.0,0.0,1400729740366
2437.5305,-0.24022007,0.25376472,9.56509,0.0,-0.36363637,0.36363637,1400729740367
2455.1086,-0.053099412,0.14435683,9.417748,0.0,0.0,0.0,1400729740396
2472.6868,-0.40810496,0.22587077,9.415375,0.0,0.0,0.72727275,1400729740399
2490.265,-0.19977981,0.16138089,9.350067,-0.36363637,-0.36363637,0.0,1400729740435
2507.843,-0.09822534,0.3194907,9.246957,0.0,0.36363637,0.36363637,1400729740436
2525.4211,-0.15735722,0.17610057,9.440378,0.36363637,0.36363637,0.36363637,1400729740474
2542.9993,-0.3242937,0.17468049,9.411977,0.0,0.36363637,0.36363637,1400729740475
2560.5774,0.009581206,0.16678974,9.458243,0.0,0.36363637,1.0909091,1400729740514
2578.1555,-0.26331943,0.14516805,9.229892,0.0,0.0,0.36363637,1400729740516
2595.7336,-0.105346866,0.025340514,9.28232,0.0,0.36363637,0.36363637,1400729740546
2613.3118,-0.08398107,0.2322246,9.542451,0.0,0.0,0.36363637,1400729740548
2630.89,-0.25910798,0.049181078,9.55505,-0.36363637,0.0,0.36363637,1400729740580
2648.468,-0.40751222,0.110837996,9.359617,-0.36363637,0.0,0.0,1400729740581
2666.0461,-0.22127971,0.1686138,9.290644,-0.36363637,0.0,0.36363637,1400729740613
2683.6243,-0.24029976,0.16741624,9.470774,0.36363637,0.72727275,0.72727275,1400729740614
2701.2024,-0.158224,0.22524427,9.402844,0.0,0.36363637,0.72727275,1400729740646
2718.7805,-0.32284972,0.09635128,9.478046,0.0,0.0,0.36363637,1400729740648
2736.3586,-0.16807024,0.23898762,9.47363,0.72727275,0.0,0.36363637,1400729740684
2753.9368,-0.20023651,0.051565766,9.194581,0.36363637,0.36363637,0.36363637,1400729740685
2771.515,-0.07489083,0.18227886,9.359863,0.36363637,0.36363637,0.36363637,1400729740717
2789.093,-0.200289,0.34130034,9.479068,0.36363637,0.36363637,0.36363637,1400729740722
2806.6711,-0.1890765,0.15214838,9.369498,0.0,0.36363637,0.36363637,1400729740758
2824.2493,-0.22023413,0.18485798,9.411446,0.72727275,0.72727275,0.72727275,1400729740760
2841.8274,-0.10606983,0.33302847,9.517713,0.36363637,0.72727275,1.0909091,1400729740786
2859.4055,-0.25137427,0.12098938,9.358563,0.0,0.36363637,0.36363637,1400729740793
2876.9836,-0.1261102,0.1760849,9.440065,0.36363637,0.72727275,0.72727275,1400729740837
2894.5618,-0.24232094,0.27493092,9.37617,-0.72727275,0.0,0.0,1400729740838
2912.14,-0.25117603,0.079068154,9.336465,-0.36363637,0.0,0.36363637,1400729740854
2929.718,-0.21048117,0.1598825,9.320099,0.0,-0.36363637,0.0,1400729740855
2947.2961,-0.011261804,0.23118563,9.521672,0.0,0.0,0.0,1400729740887
2964.8743,-0.17963256,0.2544402,9.374518,0.0,0.72727275,0.72727275,1400729740896
2982.4524,-0.11674398,0.18129733,9.340232,-0.36363637,0.36363637,0.36363637,1400729740935
3000.0305,-0.20007521,0.21353182,9.372678,-0.36363637,0.0,0.0,1400729740938
3017.6086,-0.0018975355,0.24712898,9.432375,-0.36363637,-0.36363637,0.0,1400729740967
3035.1868,-0.18962067,-0.0010915921,9.161841,-0.36363637,0.0,0.0,1400729740971
3052.765,-0.24521863,0.4852439,9.296715,0.0,0.0,0.36363637,1400729741003
3070.343,-0.23170704,0.23300448,9.353968,0.36363637,0.36363637,0.36363637,1400729741005
3087.9211,-0.081538156,-0.09863439,9.455884,0.0,0.36363637,0.36363637,1400729741039
3105.4993,-0.19043498,0.28463334,9.366136,0.36363637,0.36363637,0.36363637,1400729741044
3123.0774,-0.17848398,0.22826193,9.463198,0.0,0.36363637,0.36363637,1400729741072
3140.6555,-0.25003523,0.09581353,9.467291,0.36363637,0.36363637,0.72727275,1400729741073
3158.2336,-0.25168133,0.23752578,9.444393,0.36363637,0.36363637,0.72727275,1400729741105
3175.8118,-0.115597345,0.16584997,9.439448,0.0,0.36363637,0.36363637,1400729741108
3193.39,-0.1254261,0.08301515,9.415405,0.0,0.0,0.0,1400729741142
3210.968,-0.20886421,0.1791339,9.501045,0.0,0.0,0.0,1400729741144
3228.5461,-0.18696009,0.045134887,9.474127,0.0,0.0,0.36363637,1400729741176
3246.1243,-0.16757077,0.11272273,9.397312,0.72727275,0.0,0.36363637,1400729741181
3263.7024,-0.24192837,0.2125503,9.353046,0.36363637,0.36363637,0.72727275,1400729741187
3281.2805,-0.15057385,0.2321659,9.133114,0.0,0.36363637,0.0,1400729741211
3298.8586,-0.17932549,0.13790381,9.288689,0.0,0.36363637,1.0909091,1400729741246
3316.4368,-0.28370184,0.29791725,9.427732,0.0,0.36363637,0.36363637,1400729741249
3334.015,-0.27069554,0.20413548,9.592914,0.0,0.36363637,0.72727275,1400729741281
3351.593,-0.28311104,0.19361539,9.382512,0.0,0.36363637,0.72727275,1400729741283
3369.1711,-0.19815509,0.13770865,9.488867,0.36363637,0.36363637,0.36363637,1400729741286
3386.7493,-0.08494502,0.291598,9.505429,-0.72727275,-0.72727275,0.36363637,1400729741322
3404.3274,-0.18857898,0.036614396,9.303717,0.36363637,0.36363637,0.36363637,1400729741334
3421.9055,-0.07432722,0.22820973,9.462153,0.72727275,0.0,1.0909091,1400729741368
3439.4836,-0.16881652,0.1491307,9.309145,0.36363637,0.36363637,0.36363637,1400729741375
3457.0618,-0.1873449,0.064591885,9.455103,0.0,0.72727275,0.0,1400729741405
3474.64,-0.32343274,0.1577295,9.481121,-0.36363637,0.0,0.36363637,1400729741406
3492.218,-0.2082015,0.20410416,9.592287,0.0,0.0,0.0,1400729741438
3509.7961,-0.14655286,0.13517652,9.438225,-0.36363637,0.0,0.0,1400729741445
3527.3743,-0.1773354,0.20208368,9.551878,0.36363637,0.36363637,0.72727275,1400729741476
3544.9524,-0.24127148,0.26971328,9.475899,0.0,0.36363637,0.72727275,1400729741478
3562.5305,-0.11636695,0.20476396,9.4014015,0.36363637,0.36363637,0.36363637,1400729741481
3580.1086,-0.16641636,0.05435174,9.454382,0.0,-0.36363637,0.0,1400729741513
3597.6868,-0.08549502,0.17055076,9.329383,0.0,0.0,0.36363637,1400729741545
3615.265,-0.2414425,0.16140178,9.350485,0.0,0.36363637,0.36363637,1400729741550
3632.843,-0.10623114,0.17106241,9.339616,0.0,0.36363637,0.72727275,1400729741571
3650.4211,-0.282734,0.21708204,9.443682,0.0,0.0,0.36363637,1400729741572
3667.9993,-0.17859086,0.2921462,9.516394,-0.72727275,-0.72727275,-0.36363637,1400729741605
3685.5774,-0.19881585,0.102007486,9.387089,0.36363637,0.0,0.36363637,1400729741641
3703.1555,-0.27345526,0.17886962,9.291678,-0.36363637,0.0,0.36363637,1400729741643
3720.7336,-0.30325633,0.08982517,9.347524,0.0,0.0,0.36363637,1400729741649
3738.3118,-0.2401851,0.06060835,9.375432,0.36363637,0.36363637,0.36363637,1400729741686
3755.89,-0.06467144,0.21346396,9.37132,-0.36363637,0.36363637,0.72727275,1400729741687
3773.468,-0.11560318,0.1980427,9.471058,-0.36363637,-0.36363637,0.36363637,1400729741717
3791.0461,-0.24039693,0.17764595,9.471286,-0.36363637,0.0,0.36363637,1400729741719
3808.6243,-0.1280517,0.3699481,9.439778,-0.36363637,0.0,0.0,1400729741753
3826.2024,-0.22998515,0.19910255,9.492255,0.0,0.36363637,0.72727275,1400729741755
3843.7805,-0.14836803,0.15784635,9.279376,0.0,-0.36363637,0.0,1400729741785
3861.3586,-0.25216135,0.25648156,9.415346,0.0,0.0,0.36363637,1400729741787
3878.9368,-0.39904776,0.35835052,9.411908,-0.36363637,0.0,0.0,1400729741828
3896.515,0.0076591345,0.25334382,9.352591,0.0,0.36363637,0.36363637,1400729741829
3914.093,-0.3479139,0.3103887,9.268998,-0.72727275,0.0,0.36363637,1400729741855
3931.6711,-0.18898128,0.15264958,9.379522,0.36363637,0.72727275,0.36363637,1400729741860
3949.2493,-0.27046427,-0.020211214,9.391694,-0.72727275,-0.36363637,0.0,1400729741897
3966.8274,-0.3123427,0.11830909,9.509039,0.36363637,0.36363637,0.72727275,1400729741902
3984.4055,-0.25244704,0.25497794,9.385273,0.0,0.36363637,0.72727275,1400729741934
4001.9836,-0.23992078,0.18015197,9.521407,0.0,0.36363637,0.72727275,1400729741937
4019.5618,-0.13532482,-0.1398227,9.244362,0.36363637,0.0,0.36363637,1400729741951
4037.14,-0.29094,0.121305875,9.5689745,0.0,0.0,0.0,1400729741981
4054.718,-0.14692405,0.079517156,9.345445,-0.36363637,0.0,0.0,1400729741984
4072.2961,-0.15523691,0.047625255,9.523933,-0.36363637,0.0,0.0,1400729742016
4089.8743,-0.2952039,0.5070274,9.528303,0.0,0.0,0.36363637,1400729742018
4107.452,-0.2639219,0.31385538,9.338332,0.36363637,0.36363637,0.36363637,1400729742026
4125.0303,-0.30366254,0.22732218,9.444403,-0.36363637,0.0,0.36363637,1400729742059
4142.6084,-0.23068283,0.36728868,9.590672,0.0,0.0,0.0,1400729742095
4160.1865,-0.27616832,0.4223777,9.263881,0.0,0.0,0.36363637,1400729742096
4177.7646,-0.12754835,0.22222137,9.342386,0.0,0.36363637,0.72727275,1400729742130
4195.343,-0.18734294,0.053860977,9.444567,0.0,0.0,0.36363637,1400729742134
4212.921,-0.16844727,0.21552098,9.41246,0.36363637,0.36363637,0.72727275,1400729742168
4230.499,-0.22186662,0.25145385,9.314792,-0.72727275,-0.72727275,-0.36363637,1400729742173
4248.077,-0.23972255,0.13823074,9.499309,0.0,0.36363637,0.72727275,1400729742176
4265.6553,-0.15821818,0.19305153,9.371235,0.0,0.0,0.36363637,1400729742210
4283.2334,-0.25256172,0.36178586,9.480615,0.36363637,0.36363637,0.72727275,1400729742214
4300.8115,-0.28388646,0.2647221,9.376075,-0.36363637,0.0,0.36363637,1400729742246
4318.3896,-0.19806957,0.19186442,9.551574,0.0,0.0,0.36363637,1400729742256
4335.968,-0.15763903,0.15313512,9.389234,-0.36363637,-0.36363637,0.36363637,1400729742259
4353.546,-0.2494658,0.109551676,9.537972,-0.36363637,-0.36363637,0.0,1400729742290
4371.124,-0.08443389,0.10094765,9.365891,-0.36363637,-0.36363637,0.36363637,1400729742296
4388.702,-0.3460035,0.28822008,9.437871,0.36363637,0.0,0.72727275,1400729742327
4406.2803,-0.2007457,0.2314852,9.323582,0.36363637,0.36363637,0.72727275,1400729742336
4423.8584,-0.15938424,0.315808,9.377384,0.0,0.0,0.36363637,1400729742369
4441.4365,-0.21137321,0.34852803,9.41954,-0.36363637,0.0,0.0,1400729742409
4459.0146,-0.094849564,0.10095287,9.365996,0.36363637,0.36363637,0.36363637,1400729742412
4476.593,-0.15997505,0.42010987,9.4226055,0.36363637,0.36363637,0.72727275,1400729742416
4494.171,-0.1380748,0.30757266,9.4167595,0.0,0.36363637,0.72727275,1400729742418
4511.749,-0.25139564,0.2390294,9.474465,-0.72727275,0.0,0.0,1400729742448
4529.327,-0.19845243,0.20059049,9.522014,-0.36363637,0.72727275,1.0909091,1400729742461
4546.9053,-0.12745701,0.24418439,9.373484,0.0,0.36363637,0.72727275,1400729742498
4564.4834,-0.040472094,0.037839323,9.532297,0.0,0.36363637,0.72727275,1400729742499
4582.0615,-0.26093483,0.13623637,9.459421,0.72727275,0.36363637,1.0909091,1400729742535
4599.6396,-0.21822849,0.16319056,9.590342,0.0,-0.36363637,0.0,1400729742537
4617.218,-0.052625213,0.15759377,9.478406,0.0,-0.36363637,0.36363637,1400729742572
4634.796,-0.096573405,0.14558572,9.238245,-0.36363637,0.0,0.0,1400729742573
4652.374,-0.09266707,0.15540422,9.638697,0.0,0.0,0.36363637,1400729742601
4669.952,-0.16891758,0.18082222,9.33073,0.36363637,0.36363637,0.36363637,1400729742607
4687.5303,-0.33489594,0.15222147,9.37096,0.0,0.36363637,0.72727275,1400729742609
4705.1084,-0.18687846,0.12075246,9.557906,0.0,0.0,0.36363637,1400729742634
4722.6865,-0.22013113,0.14243554,9.379323,0.0,1.0909091,0.72727275,1400729742672
4740.2646,-0.2202283,0.15266524,9.379835,0.0,0.36363637,0.72727275,1400729742674
4757.843,-0.2663201,0.39790344,9.182558,0.0,0.36363637,0.72727275,1400729742702
4775.421,-0.1287805,0.18351297,9.180464,0.36363637,0.36363637,0.72727275,1400729742705
4792.999,-0.23120758,0.106739596,9.277649,0.0,0.36363637,0.72727275,1400729742738
4810.577,-0.23190138,0.2534639,9.354992,0.0,1.0909091,1.0909091,1400729742741
4828.1553,-0.13930888,0.27959517,9.265373,0.0,0.36363637,0.72727275,1400729742772
4845.7334,-0.27298105,0.19210656,9.352335,0.0,0.36363637,1.0909091,1400729742776
4863.3115,-0.14529155,0.012921276,9.442099,0.72727275,0.36363637,0.72727275,1400729742810
4880.8896,-0.19910349,0.111234784,9.367553,-0.36363637,0.0,0.36363637,1400729742819
4898.468,-0.08473318,0.1745604,9.409575,-0.36363637,0.0,0.36363637,1400729742851
4916.046,-0.3049277,0.37103924,9.461601,0.0,-0.36363637,0.36363637,1400729742853
4933.624,-0.032250572,0.047768198,9.322711,0.0,0.0,0.0,1400729742886
4951.202,-0.4590989,0.027522847,9.325967,-0.36363637,-0.36363637,0.72727275,1400729742888
4968.7803,-0.28325096,0.4399251,9.614829,0.36363637,0.0,0.72727275,1400729742919
4986.3584,-0.14029227,0.44627768,9.333716,0.72727275,0.0,0.72727275,1400729742920
5003.9365,-0.18602917,0.16818695,9.690269,0.0,-0.36363637,0.72727275,1400729742954
5021.5146,-0.14760426,0.15112509,9.349032,0.0,0.36363637,0.36363637,1400729742955
5039.093,-0.20112856,0.2402113,9.294022,0.0,0.36363637,0.72727275,1400729742968
5056.671,-0.12678458,0.2155001,9.412043,0.0,0.0,0.72727275,1400729743000
5074.249,-0.21906222,0.029908793,9.373686,0.0,0.0,0.72727275,1400729743005
5091.827,-0.10420995,0.06354771,9.434219,0.36363637,0.72727275,0.36363637,1400729743036
5109.4053,-0.11483357,0.15912871,9.509105,0.72727275,0.72727275,0.72727275,1400729743041
5126.9834,-0.043255113,0.14134438,9.3575,0.36363637,0.36363637,0.72727275,1400729743076
5144.5615,-0.20065047,0.23198642,9.333606,0.0,0.0,0.72727275,1400729743080
5162.1396,-0.2821432,0.11278016,9.39846,0.0,0.0,0.0,1400729743103
5179.718,-0.073837474,0.15559939,9.438519,-0.36363637,0.0,0.0,1400729743105
5197.296,-0.09388756,0.052310374,9.413554,-0.36363637,-0.36363637,0.0,1400729743137
5214.874,-0.39691773,0.17622064,9.4427805,-0.36363637,0.0,0.36363637,1400729743139
5232.452,-0.32326367,0.27677193,9.617071,0.36363637,0.0,0.36363637,1400729743174
5250.0303,-0.17779793,0.12446128,9.428001,0.0,0.0,0.36363637,1400729743207
5267.6084,-0.10516807,0.09072839,9.365588,0.0,0.0,0.36363637,1400729743212
5285.1865,-0.19960295,0.23749967,9.443871,0.36363637,0.0,0.36363637,1400729743216
5302.7646,-0.14722334,0.1531299,9.389129,0.0,0.0,0.0,1400729743219
5320.343,-0.09680662,0.38066334,9.450001,0.0,0.36363637,0.0,1400729743255
5337.921,-0.27242327,0.27023014,9.486236,0.0,0.36363637,0.72727275,1400729743288
5355.499,-0.16737254,0.070801504,9.375214,0.36363637,0.0,0.36363637,1400729743290
5373.077,-0.2537861,0.2801538,9.276546,0.36363637,0.36363637,0.36363637,1400729743327
5390.6553,-0.36584175,0.06789347,9.317053,-0.36363637,0.0,0.36363637,1400729743329
5408.2334,-0.23354554,0.38444522,9.321558,0.36363637,0.72727275,1.0909091,1400729743331
5425.8115,-0.11656907,0.26814702,9.444573,0.0,0.36363637,0.36363637,1400729743365
5443.3896,-0.34415528,0.08312479,9.417598,-0.72727275,0.36363637,0.0,1400729743398
5460.968,0.02984118,0.16377206,9.39789,-0.36363637,0.0,0.0,1400729743409
5478.546,-0.36633536,0.16196564,9.361762,0.0,0.0,0.36363637,1400729743431
5496.124,-0.20895556,0.15717088,9.469948,-0.36363637,-0.36363637,0.0,1400729743433
5513.702,-0.2317906,0.16811782,9.280724,0.0,0.36363637,0.72727275,1400729743435
5531.2803,-0.32514495,0.1379769,9.290151,-0.36363637,0.36363637,0.36363637,1400729743466
5548.8584,-0.10557814,0.24968721,9.483541,-0.36363637,0.36363637,0.0,1400729743497
5566.4365,-0.33461025,0.15372509,9.401032,0.36363637,0.36363637,0.36363637,1400729743499
5584.0146,-0.10064299,0.51084787,9.196548,-0.72727275,-0.36363637,0.0,1400729743535
5601.593,-0.043367833,0.23742136,9.442305,0.0,0.0,0.36363637,1400729743537
5619.171,-0.32544422,0.21158965,9.333834,0.0,0.36363637,0.36363637,1400729743569
5636.749,-0.117725424,0.33724892,9.39804,0.36363637,0.36363637,0.72727275,1400729743576
5654.327,-0.37541395,0.1475259,9.481131,0.36363637,0.0,0.72727275,1400729743605
5671.9053,-0.1371089,0.23746835,9.443245,0.36363637,0.36363637,0.72727275,1400729743608
5689.4834,-0.28234142,0.1547014,9.420559,0.36363637,0.36363637,0.36363637,1400729743612
5707.0615,-0.31464958,0.22432017,9.384362,0.0,1.0909091,1.0909091,1400729743638
5724.6396,-0.4905597,0.15530701,9.432671,-0.36363637,0.36363637,0.36363637,1400729743675
5742.218,-0.06285626,0.19079413,9.530169,-0.36363637,0.0,0.36363637,1400729743678
5759.796,-0.25166968,0.17314032,9.381174,-0.36363637,0.0,0.36363637,1400729743707
5777.374,-0.16948119,0.13489136,9.228439,0.0,0.0,0.36363637,1400729743709
5794.952,-0.17896596,0.25794864,9.444687,0.36363637,0.0,0.36363637,1400729743742
5812.5303,-0.03314456,0.24714464,9.432689,0.36363637,0.36363637,0.72727275,1400729743746
5830.1084,-0.12650861,0.27065825,9.494798,-0.36363637,0.36363637,0.0,1400729743779
5847.6865,-0.09459303,0.26342013,9.554117,-0.36363637,0.0,1.0909091,1400729743782
5865.2646,-0.1668517,-0.1735034,9.182993,0.0,0.36363637,0.36363637,1400729743792
5882.843,-0.35649303,0.16968408,9.312049,0.36363637,0.36363637,0.72727275,1400729743830
5900.421,-0.23044768,0.12148015,9.368379,0.0,0.36363637,0.72727275,1400729743833
5917.999,-0.33669946,0.11050584,9.148892,-0.36363637,-0.72727275,0.0,1400729743861
5935.577,-0.29361805,0.17165759,9.351519,0.36363637,0.36363637,1.0909091,1400729743865
5953.1553,-0.39844725,0.20039408,9.314004,-0.72727275,-0.72727275,0.0,1400729743900
5970.7334,-0.14702706,0.121939585,9.377567,0.36363637,0.36363637,0.72727275,1400729743903
5988.3115,-0.23876637,0.12178098,9.578477,0.0,0.0,0.0,1400729743931
6005.8896,-0.20035118,0.15837365,9.289922,0.36363637,0.36363637,-0.36363637,1400729743935
6023.468,-0.2735602,0.23202296,9.334336,0.0,0.0,0.72727275,1400729743967
6041.046,-0.1668692,-0.0769252,9.2778225,-0.36363637,-0.36363637,0.0,1400729743969
6058.624,-0.085411444,0.23543742,9.402626,0.0,0.0,0.0,1400729744002
6076.202,-0.21918078,0.15817851,9.490101,0.36363637,0.36363637,0.72727275,1400729744005
6093.7803,-0.26245847,0.12821707,9.299035,0.0,0.0,0.0,1400729744039
6111.3584,-0.14638183,0.24348803,9.563639,0.0,0.36363637,0.36363637,1400729744040
6128.9365,-0.20942588,0.122472115,9.388218,0.0,0.0,0.72727275,1400729744070
6146.5146,-0.35592747,0.20488405,9.403804,0.0,0.36363637,0.36363637,1400729744073
6164.093,-0.0650543,0.22219004,9.34176,-0.36363637,0.0,0.36363637,1400729744105
6181.671,-0.27365738,0.24225266,9.334849,0.0,0.36363637,0.72727275,1400729744110
6199.249,-0.14404775,-0.012755784,9.540803,-0.72727275,-0.36363637,-0.36363637,1400729744134
6216.827,-0.03352159,0.223678,9.371519,0.36363637,0.36363637,0.36363637,1400729744147
6234.4053,-0.21223028,0.34401718,9.329323,0.0,0.36363637,0.36363637,1400729744175
6251.9834,-0.1475965,0.108201444,9.306886,0.0,0.36363637,0.72727275,1400729744177
6269.5615,-0.27473792,0.41916487,9.403706,0.36363637,0.0,0.72727275,1400729744195
6287.1396,-0.38870203,0.21834224,9.264804,0.36363637,0.36363637,0.0,1400729744228
6322.296,-0.34703156,0.17539772,9.22224,0.0,-0.36363637,0.36363637,1400729744310
6339.874,-0.2499225,-2.6345247E-4,9.382486,0.0,-0.36363637,0.0,1400729744310
6357.452,-0.32496807,0.21409568,9.383954,-0.36363637,0.0,0.72727275,1400729744311
6375.0303,-0.084089905,0.30683976,9.606183,0.0,0.36363637,0.36363637,1400729744311
6392.6084,-0.33558586,0.27748394,9.42723,0.36363637,0.36363637,0.0,1400729744340
6410.1865,-0.13711084,0.24819925,9.453781,-0.36363637,0.0,0.36363637,1400729744340
6427.7646,-0.19697152,-0.08162599,9.387888,0.36363637,0.0,0.72727275,1400729744375
6445.343,-0.15678196,0.15764597,9.47945,0.36363637,0.36363637,0.36363637,1400729744375
6462.921,-0.23191498,0.32858026,9.428748,0.0,0.36363637,0.36363637,1400729744411
6480.499,-0.29613286,0.37324443,9.301623,0.36363637,0.36363637,0.36363637,1400729744416
6498.077,-0.36712247,0.2974578,9.418544,0.0,0.36363637,0.72727275,1400729744448
6515.6553,-0.11338182,0.037875872,9.533028,0.36363637,0.36363637,0.36363637,1400729744451
6533.2334,-0.25436133,0.2986084,9.237474,0.72727275,0.72727275,1.0909091,1400729744481
6550.8115,-0.12811194,0.1762905,9.240096,0.36363637,0.36363637,1.0909091,1400729744482
6568.3896,-0.26256537,0.19210133,9.352231,0.0,0.0,0.72727275,1400729744517
6585.968,-0.16679534,0.041616008,9.4037485,-0.72727275,-0.36363637,0.36363637,1400729744517
6603.546,-0.05139112,0.18557125,9.629792,-0.36363637,0.0,0.36363637,1400729744544
6621.124,-0.26161113,0.18638247,9.441936,-0.36363637,-0.36363637,0.36363637,1400729744581
6638.702,-0.0029295073,0.15576844,9.237818,-0.36363637,0.0,0.0,1400729744581
6656.2803,-0.10530605,0.3263072,9.587368,0.36363637,0.36363637,0.72727275,1400729744582
6673.8584,-0.3676025,0.3164136,9.389497,-0.36363637,0.0,0.36363637,1400729744610
6691.4365,-0.27261567,0.27995867,9.476724,0.0,0.0,0.36363637,1400729744616
6709.0146,-0.20816846,0.02167869,9.413166,0.0,0.0,0.36363637,1400729744650
6726.593,-0.29352087,0.16142789,9.3510065,0.0,0.36363637,0.72727275,1400729744651
6744.171,-0.115103714,0.07177781,9.39474,0.0,-0.36363637,0.36363637,1400729744685
6761.749,-0.14548007,0.0011879548,9.411514,0.0,0.36363637,0.72727275,1400729744686
6779.327,-0.21724121,-0.024953764,9.500925,-0.72727275,-0.36363637,-0.36363637,1400729744716
6796.9053,-0.062461738,0.11768258,9.496509,0.72727275,0.36363637,0.72727275,1400729744752
6814.4834,-0.2089478,0.11424723,9.427802,-0.36363637,0.0,0.0,1400729744754
6832.0615,-0.3160819,0.2382639,9.255074,0.36363637,0.72727275,1.0909091,1400729744758
6849.6396,-0.2103976,0.22476916,9.393342,0.36363637,0.0,0.72727275,1400729744790
6867.218,-0.33491537,0.25953057,9.476326,-0.36363637,0.0,0.0,1400729744792
6884.796,-0.18900265,0.2706896,9.495424,-0.36363637,0.0,0.0,1400729744829
6902.374,-0.29217213,0.08259748,9.407052,0.0,0.0,0.72727275,1400729744829
6919.952,-0.3148653,0.36281958,9.501289,0.0,-0.36363637,0.36363637,1400729744862
6937.5303,-0.20074376,0.2207543,9.3130455,-1.0909091,0.36363637,0.0,1400729744867
6955.1084,-0.09515469,0.20675835,9.44129,0.0,0.36363637,0.72727275,1400729744900
6972.6865,-0.25321665,0.29389194,9.347227,-0.36363637,-0.36363637,0.36363637,1400729744901
6990.2646,-0.13606332,0.2537125,9.564046,0.0,0.36363637,0.72727275,1400729744920
7007.843,-0.20970768,0.09950668,9.337072,0.36363637,0.36363637,0.72727275,1400729744954
7025.421,-0.23104821,0.27943656,9.466282,0.36363637,0.0,0.72727275,1400729744956
7042.999,-0.15611146,0.13969259,9.528545,0.0,0.36363637,0.72727275,1400729744962
7060.577,-0.11580335,0.25069484,9.503693,-0.72727275,-0.72727275,-0.36363637,1400729744996
7078.1553,-0.2940223,0.29842368,9.437861,0.0,0.36363637,0.36363637,1400729745004
7095.7334,-0.11799945,0.27135986,9.304748,0.36363637,0.0,0.72727275,1400729745038
7113.3115,-0.19660227,-0.015235706,9.491204,0.36363637,0.72727275,1.0909091,1400729745041
7130.8896,-0.28241917,0.057622,9.315705,0.0,0.0,0.36363637,1400729745072
7148.468,-0.20915379,0.1990921,9.492046,0.0,-0.36363637,0.36363637,1400729745073
7166.046,-0.4086783,0.23359445,9.365767,-0.36363637,0.0,0.0,1400729745108
7183.624,-0.2310385,0.22578202,9.413599,-0.72727275,0.0,0.0,1400729745111
7201.202,-0.09253492,-0.04798185,9.448526,-0.36363637,-0.36363637,0.0,1400729745140
7218.7803,-0.15976709,0.3245341,9.347824,0.0,0.36363637,0.36363637,1400729745174
7236.3584,-0.20307979,0.487729,9.346417,-0.36363637,0.0,0.36363637,1400729745176
7253.9365,-0.06427886,0.15108332,9.348197,0.0,0.0,0.36363637,1400729745178
7271.5146,-0.29371133,0.16042547,9.330958,0.0,0.0,0.72727275,1400729745208
7289.093,-0.23227064,0.18707362,9.251677,0.0,0.36363637,0.36363637,1400729745243
7306.671,-0.179514,0.12617049,9.258103,-0.36363637,-0.36363637,0.0,1400729745246
7324.249,-0.2535004,0.28165743,9.306618,0.36363637,0.36363637,0.72727275,1400729745250
7341.827,-0.3221831,0.09985972,9.548215,-0.72727275,-0.36363637,-0.36363637,1400729745281
7359.4053,-0.104023375,0.08601194,9.475341,0.0,0.36363637,0.72727275,1400729745288
7376.9834,-0.11598604,0.2067688,9.441499,-0.72727275,-0.36363637,-0.36363637,1400729745320
7394.5615,-0.19921231,0.18584995,9.431285,0.0,0.0,0.72727275,1400729745323
7412.1396,-0.0526291,0.17905559,9.499479,0.36363637,0.72727275,1.0909091,1400729745334
7429.718,-0.2543594,0.2878775,9.226937,-0.36363637,-0.36363637,0.36363637,1400729745366
7447.296,-0.3439551,0.03047265,9.384963,0.0,0.0,0.0,1400729745371
7464.874,-0.16776513,0.13318214,9.398336,-0.36363637,0.0,0.36363637,1400729745411
7482.452,-0.3358599,0.21159488,9.333939,-0.36363637,0.0,0.36363637,1400729745412
7500.0303,-0.13529372,0.21479852,9.602093,0.0,0.0,0.72727275,1400729745444
7517.6084,-0.1475304,0.26966628,9.474958,0.36363637,0.36363637,0.72727275,1400729745448
7535.1865,-0.24957074,0.16270502,9.580631,0.0,0.0,0.36363637,1400729745449
7552.7646,-0.04238056,0.049277037,9.352888,-0.36363637,0.0,0.36363637,1400729745482
7570.343,-0.13901737,0.24890606,9.263836,0.0,0.36363637,0.72727275,1400729745517
7587.921,-0.08491781,0.14136526,9.357918,0.36363637,0.36363637,0.72727275,1400729745519
7605.499,-0.35603046,0.24730648,9.4359255,0.0,0.36363637,0.36363637,1400729745554
7623.077,-0.12598582,0.0156224575,9.292041,0.36363637,0.36363637,0.36363637,1400729745559
7640.6553,-0.2090294,0.03862966,9.344022,0.36363637,0.72727275,0.36363637,1400729745560
7658.2334,-0.46903843,0.030034095,9.376192,0.36363637,0.0,0.72727275,1400729745589
7675.8115,-0.021286845,0.17954113,9.50919,0.0,0.0,0.36363637,1400729745623
7693.3896,-0.26391414,0.27093172,9.2961855,0.36363637,0.36363637,0.72727275,1400729745639
7710.968,-0.14993446,0.38590708,9.350795,0.0,-0.36363637,0.36363637,1400729745641
7728.546,-0.24030752,0.21033987,9.51292,-0.72727275,0.0,0.36363637,1400729745671
7746.124,-0.11587138,0.0999609,9.346157,-0.36363637,0.0,0.36363637,1400729745672
7763.702,-0.3558303,0.19465435,9.403291,-0.36363637,0.0,0.0,1400729745708
7781.2803,-0.28255326,0.271739,9.516413,0.36363637,0.0,-1.0909091,1400729745713
7798.8584,-0.08484396,0.25990647,9.483844,-0.36363637,-0.36363637,0.0,1400729745747
7816.4365,-0.33614948,0.23155308,9.324939,-0.36363637,-0.36363637,0.0,1400729745749
7834.0146,-0.12613158,0.2941249,9.555967,0.0,-0.36363637,0.36363637,1400729745752
7851.593,-0.26007,0.097823575,9.507492,0.36363637,0.36363637,0.72727275,1400729745790
7869.171,-0.28368825,0.22280088,9.353977,0.0,0.0,0.72727275,1400729745791
7886.749,-0.21106227,0.21052982,9.312637,0.36363637,0.72727275,0.72727275,1400729745824
7904.327,-0.17895429,0.19356318,9.381468,0.0,0.36363637,0.72727275,1400729745851
7921.9053,-0.23100933,0.06481837,9.255551,0.36363637,0.36363637,0.72727275,1400729745854
7939.4834,-0.20647183,0.12727858,9.688429,0.36363637,0.72727275,0.72727275,1400729745854
7957.0615,-0.20846581,0.084560536,9.446313,0.0,0.0,0.72727275,1400729745887
7974.6396,-0.16882041,0.17059253,9.330217,0.0,0.36363637,0.72727275,1400729745919
7992.218,-0.26159754,0.11126611,9.368179,-0.36363637,0.36363637,0.36363637,1400729745921
8009.796,-0.26170638,0.18588127,9.431911,0.0,0.0,0.36363637,1400729745928
8027.374,-0.14664032,0.09175168,9.386054,-0.36363637,0.0,0.36363637,1400729745972
8044.952,-0.19827169,0.25524744,9.594745,-0.36363637,-0.36363637,0.0,1400729745973
8062.5303,-0.28505838,0.4196713,9.413835,0.0,1.0909091,0.72727275,1400729745985
8080.1084,-0.035171576,0.38685206,9.369695,-0.36363637,0.36363637,0.0,1400729746012
8097.6865,-0.053206302,0.20824109,9.470944,-0.36363637,-0.36363637,0.0,1400729746044
8115.2646,-0.27240968,0.19511378,9.412479,0.36363637,0.0,0.72727275,1400729746045
8132.843,-0.07604524,0.24064985,9.302793,0.36363637,0.36363637,0.72727275,1400729746048
8150.421,-0.19805208,0.09528622,9.456745,0.0,0.0,0.36363637,1400729746083
8167.999,-0.094017774,0.24496554,9.593188,0.0,0.36363637,0.36363637,1400729746085
8185.577,-0.08446887,0.29410404,9.55555,0.0,0.0,0.36363637,1400729746119
8203.155,-0.14618166,0.1908359,9.531004,0.0,0.0,0.72727275,1400729746151
8220.733,-0.07422811,0.20724912,9.451105,0.36363637,0.36363637,0.72727275,1400729746154
8238.312,-0.21754439,0.07012081,9.565681,0.0,0.72727275,1.0909091,1400729746160
8255.89,-0.17037906,0.3557296,9.35949,0.36363637,0.36363637,0.72727275,1400729746191
8273.468,-0.20856687,0.11625206,9.467898,0.0,0.36363637,0.0,1400729746199
8291.046,-0.14700763,0.014630488,9.272202,-0.36363637,-0.36363637,0.0,1400729746235
8308.624,-0.0936077,0.086006716,9.475236,-0.36363637,0.0,0.36363637,1400729746238
8326.202,-0.25969297,0.121290214,9.568662,-0.36363637,0.0,0.0,1400729746263
8343.78,-0.3677852,0.27248755,9.327302,0.72727275,0.0,0.72727275,1400729746265
8361.358,-0.3340253,0.08161595,9.387421,-0.72727275,0.36363637,0.0,1400729746299
8378.937,-0.25959578,0.11106051,9.568149,-0.72727275,0.36363637,0.0,1400729746299
8396.515,-0.23104239,0.24724384,9.434672,-0.36363637,0.36363637,0.0,1400729746334
8414.093,-0.10490182,0.1995411,9.501026,0.0,0.36363637,0.72727275,1400729746374
8431.671,-0.2000616,0.13841546,9.298922,-0.36363637,-0.72727275,0.0,1400729746375
8449.249,-0.0642847,0.18327604,9.3798065,0.0,0.0,0.72727275,1400729746378
8466.827,-0.11340319,0.15591589,9.64893,-0.36363637,-0.72727275,0.0,1400729746404
8484.405,-0.19933476,0.33558148,9.568772,0.0,0.36363637,0.72727275,1400729746438
8501.983,-0.12592946,0.23074186,9.512796,-0.36363637,0.36363637,0.36363637,1400729746438
8519.562,-0.09641793,0.3397445,9.447951,0.36363637,0.72727275,1.0909091,1400729746452
8537.14,-0.19188285,0.38442436,9.32114,0.0,0.0,0.72727275,1400729746462
8554.718,-0.12601691,0.18731701,9.460626,0.0,0.0,0.0,1400729746496
8572.296,-0.20907217,0.27470967,9.575827,0.0,0.0,0.0,1400729746499
8589.874,-0.21944314,0.027903972,9.33359,-0.36363637,0.0,0.36363637,1400729746531
8607.452,-0.21010803,0.20481096,9.402342,0.0,-0.36363637,0.0,1400729746532
8625.03,-0.1046686,-0.035536505,9.289269,-0.36363637,-0.36363637,0.36363637,1400729746564
8642.608,-0.07653887,0.334722,9.347502,0.36363637,0.36363637,0.72727275,1400729746601
8660.187,-0.11597632,0.15311424,9.388816,-0.36363637,-0.36363637,0.36363637,1400729746607
8677.765,-0.34493655,0.18642424,9.442771,0.0,0.0,1.0909091,1400729746611
8695.343,-0.12727821,0.30957225,9.456752,0.0,0.0,0.36363637,1400729746633
8712.921,-0.20799355,0.108528376,9.517507,0.36363637,0.36363637,0.72727275,1400729746693
8730.499,-0.07540001,0.3621983,9.488864,-0.36363637,0.0,-0.36363637,1400729746697
8748.077,-0.14589013,0.16014679,9.529467,0.0,0.36363637,0.36363637,1400729746699
8765.655,-0.18880053,0.20730655,9.452253,0.0,0.72727275,0.72727275,1400729746709
8783.233,-0.47986612,0.19972906,9.504786,0.0,0.36363637,0.72727275,1400729746731
8800.812,-0.3243967,0.21710292,9.444099,0.0,0.36363637,0.72727275,1400729746731
8818.39,-0.35604018,0.30096105,9.488608,0.36363637,0.72727275,0.72727275,1400729746765
8835.968,-0.36584562,0.08935529,9.338126,0.0,0.36363637,0.0,1400729746767
8853.546,-0.27269536,0.19361018,9.382407,-0.36363637,0.0,0.36363637,1400729746802
8871.124,-0.27366513,0.2851763,9.376995,-0.36363637,0.0,0.36363637,1400729746804
8888.702,-0.19984977,0.02137786,9.203068,-0.36363637,0.0,0.0,1400729746839
8906.28,-0.12638228,0.099464916,9.336237,-0.36363637,-0.36363637,0.72727275,1400729746842
8923.858,-0.09619055,0.13685963,9.267805,0.0,0.36363637,0.36363637,1400729746873
8941.437,-0.14529933,0.055844914,9.484245,0.0,0.36363637,0.0,1400729746874
8959.015,-0.2914103,0.08660712,9.487245,-0.36363637,0.0,0.0,1400729746907
8976.593,-0.30261502,0.23283544,9.554667,0.0,0.36363637,0.72727275,1400729746908
8994.171,-0.14714561,0.2502093,9.493982,0.72727275,-0.36363637,0.72727275,1400729746915
9011.749,-0.2409547,0.099522345,9.337386,-0.36363637,-0.72727275,0.0,1400729746948
9029.327,-0.15687524,0.14641386,9.458889,0.0,0.0,0.36363637,1400729746959
9046.905,-0.044428956,0.30702448,9.405795,-0.72727275,-0.72727275,-0.36363637,1400729746994
9064.483,-0.1680683,0.22825672,9.463094,0.0,0.0,0.72727275,1400729746995
9082.062,-0.09783471,0.26784098,9.23437,0.72727275,0.72727275,0.72727275,1400729747028
9099.64,-0.14768977,0.09696933,9.286325,0.0,0.0,0.72727275,1400729747030
9117.218,-0.14773059,0.32231843,9.507593,0.36363637,0.36363637,0.0,1400729747062
9134.796,-0.16940734,0.25343257,9.354365,-0.36363637,0.0,0.36363637,1400729747063
9152.374,-0.13625573,0.26344103,9.554535,-0.36363637,-0.36363637,0.36363637,1400729747097
9169.952,-0.16747555,0.11322394,9.407336,-0.36363637,-0.36363637,0.0,1400729747101
9187.53,-0.17683981,0.0972806,9.496633,0.0,0.0,1.0909091,1400729747104
9205.108,-0.2612866,-0.026732106,9.261276,0.72727275,0.0,0.72727275,1400729747137
9222.687,-0.18868198,0.07903683,9.335838,0.0,0.36363637,0.36363637,1400729747145
9240.265,-0.18802121,0.114737995,9.437617,0.0,-0.36363637,0.0,1400729747177
9257.843,-0.064263314,0.06523604,9.263905,0.36363637,0.36363637,0.72727275,1400729747180
9275.421,-0.18956819,0.23548964,9.40367,-0.36363637,0.0,0.0,1400729747212
9292.999,-0.2305643,0.23901895,9.4742565,0.0,0.36363637,0.72727275,1400729747213
9310.577,-0.2610184,0.0713497,9.386178,-0.72727275,-0.36363637,-0.36363637,1400729747245
9328.155,0.02063822,0.30979478,9.665283,0.0,0.36363637,0.72727275,1400729747273
9345.733,-0.1895507,0.13891144,9.308841,0.0,0.0,0.72727275,1400729747275
9363.312,-0.14007266,0.28631645,9.195717,0.36363637,0.72727275,0.72727275,1400729747310
9380.89,0.009670605,0.19948366,9.499878,0.0,0.36363637,0.36363637,1400729747313
9398.468,-0.20817235,0.04314051,9.434238,0.36363637,0.36363637,1.0909091,1400729747342
9416.046,-0.124491304,0.18460539,9.610476,-0.36363637,-0.36363637,0.36363637,1400729747352
9433.624,-0.21945675,0.10302034,9.407346,0.0,-0.36363637,0.36363637,1400729747383
9451.202,-0.15763125,0.110211484,9.347087,-0.36363637,0.0,0.0,1400729747385
9468.78,-0.23267488,0.3138397,9.338018,0.0,-0.36363637,0.36363637,1400729747417
9486.358,-0.14770532,0.18281661,9.370618,0.36363637,0.36363637,0.72727275,1400729747421
9503.937,-0.24039693,0.17764595,9.471286,0.0,0.36363637,0.72727275,1400729747433
9521.515,-0.2608493,0.19039212,9.522128,0.0,0.0,0.36363637,1400729747454
9539.093,-0.19196641,0.3195377,9.247896,0.0,0.0,0.72727275,1400729747489
9556.671,-0.31455046,0.20335954,9.373314,0.0,0.0,0.36363637,1400729747490
9574.249,-0.29545072,0.2909056,9.287499,0.0,0.0,0.72727275,1400729747523
9591.827,-0.29399315,0.13746004,9.279813,0.0,0.36363637,0.36363637,1400729747524
9609.405,-0.16759215,0.23076275,9.513214,0.0,0.36363637,0.36363637,1400729747527
9626.983,-0.14646734,0.18933228,9.500932,0.72727275,0.0,0.72727275,1400729747563
9644.562,-0.18127088,0.3532288,9.309474,0.0,0.0,0.36363637,1400729747594
9662.14,-0.2843529,0.20856154,9.273272,0.36363637,0.36363637,0.36363637,1400729747595
9679.718,-0.26316395,0.33932683,9.439598,0.36363637,0.72727275,0.72727275,1400729747629
9697.296,-0.180511,0.36796936,9.400204,0.0,0.0,0.36363637,1400729747633
9714.874,-0.15736306,0.20829329,9.471989,-0.36363637,0.0,0.0,1400729747665
9732.452,-0.29246363,0.11328659,9.408589,-0.36363637,-0.36363637,0.0,1400729747667
9750.03,-0.30094364,-0.04837864,9.440591,-0.36363637,0.0,0.36363637,1400729747700
9767.608,-0.17741702,0.1264661,9.468098,0.0,0.36363637,0.72727275,1400729747702
9785.187,-0.16814215,0.1097155,9.337167,0.0,0.36363637,0.36363637,1400729747703
9802.765,-0.31408986,0.29171285,9.507727,0.0,0.0,0.36363637,1400729747732
9820.343,-0.101734,0.07657905,9.694846,0.0,0.72727275,0.72727275,1400729747765
9837.921,-0.19920455,0.1429263,9.389138,0.36363637,0.36363637,0.36363637,1400729747767
9855.499,-0.23168178,0.093502656,9.216992,0.0,0.36363637,0.36363637,1400729747801
9873.077,-0.38534376,0.09638261,9.478673,-0.36363637,0.36363637,0.36363637,1400729747803
9890.655,-0.33411857,0.07038383,9.36686,0.36363637,0.36363637,0.72727275,1400729747834
9908.233,-0.23893352,-0.0079923505,9.43199,0.0,0.36363637,0.36363637,1400729747836
9925.812,-0.114547886,0.16063233,9.539177,0.72727275,0.72727275,1.0909091,1400729747870
9943.39,-0.3037461,0.16243552,9.37116,0.0,0.36363637,0.36363637,1400729747872
9960.968,-0.27291304,0.3428405,9.5098715,0.36363637,0.72727275,0.72727275,1400729747904
9978.546,-0.033097915,-0.0103972,9.1798115,-0.36363637,-0.36363637,0.72727275,1400729747905
9996.124,-0.27184996,0.26250648,9.535844,-0.36363637,0.0,0.36363637,1400729747939
10013.702,-0.19843882,0.12547413,9.448258,-0.36363637,0.0,0.0,1400729747940
10031.28,-0.16757661,0.14491546,9.428922,0.0,0.0,0.36363637,1400729747973
10048.858,-0.10661983,0.21198122,9.341665,0.0,0.0,0.72727275,1400729747974
10066.437,-0.17904174,0.15013833,9.329297,-0.36363637,0.0,0.72727275,1400729748011
10084.015,-0.19794908,0.052863788,9.424623,-0.36363637,0.0,0.36363637,1400729748013
10101.593,-0.20131513,0.21774706,9.2529,0.0,1.0909091,0.72727275,1400729748047
10119.171,-0.14935142,0.32452884,9.34772,0.0,0.0,0.72727275,1400729748048
10136.749,-0.17633452,-0.06117702,9.388704,0.0,0.36363637,0.72727275,1400729748082
10154.327,-0.36866167,0.3752858,9.342451,0.0,0.36363637,0.36363637,1400729748086
10171.905,-0.1890765,0.15214838,9.369498,0.0,0.0,0.72727275,1400729748122
10189.483,-0.20074959,0.25294703,9.344655,0.36363637,0.36363637,0.36363637,1400729748134
10207.062,-0.16760382,0.2951482,9.576433,0.0,0.36363637,0.72727275,1400729748153
10224.64,-0.27354854,0.1676375,9.271117,0.0,0.36363637,0.36363637,1400729748153
10242.218,-0.10469776,0.12542714,9.447318,0.0,0.36363637,0.72727275,1400729748196
10259.796,-0.26170054,0.15368854,9.400301,0.0,0.0,0.72727275,1400729748198
10277.374,-0.19931337,0.21754147,9.45287,0.0,0.0,0.36363637,1400729748200
10294.952,-0.29238397,0.19963507,9.502906,-0.36363637,0.0,0.0,1400729748229
10312.53,-0.13727993,0.12915684,9.317831,-0.36363637,-0.36363637,0.0,1400729748231
10330.108,-0.28332093,0.29992208,9.46783,-0.36363637,-0.36363637,0.36363637,1400729748263
10347.687,-0.12542221,0.06155333,9.394332,0.0,0.0,0.36363637,1400729748298
10365.265,-0.1262715,0.014118841,9.261969,-0.36363637,0.0,0.72727275,1400729748300
10382.843,-0.31616935,0.19483906,9.202904,0.72727275,0.0,0.72727275,1400729748301
10400.421,-0.2097135,0.13169941,9.368682,0.36363637,0.0,0.72727275,1400729748334
10417.999,-0.29361418,0.15019576,9.330446,0.0,0.36363637,0.72727275,1400729748335
10435.577,-0.15784115,0.21651818,9.4324045,0.36363637,0.72727275,1.0909091,1400729748369
10453.155,-0.20809656,0.15095082,9.549628,0.36363637,0.36363637,0.72727275,1400729748401
10470.733,-0.29476857,0.20856676,9.273376,0.0,0.36363637,0.72727275,1400729748406
10488.312,-0.06255113,0.084988646,9.454875,0.36363637,0.36363637,0.72727275,1400729748407
10505.89,-0.18679295,0.17490822,9.620613,0.0,0.36363637,0.72727275,1400729748436
10523.468,-0.1244777,0.10948902,9.536719,0.36363637,0.36363637,0.36363637,1400729748473
10541.046,-0.24211688,0.20081697,9.322462,0.0,0.0,0.36363637,1400729748474
10558.624,-0.13633542,0.17709254,9.460218,-0.36363637,0.0,0.36363637,1400729748477
10576.202,-0.32362905,0.18891983,9.492682,-0.36363637,0.0,0.0,1400729748509
10593.78,-0.24181564,0.11647332,9.268242,-0.36363637,-0.36363637,0.0,1400729748543
10611.358,-0.31515098,0.36131597,9.471217,0.0,0.72727275,0.72727275,1400729748545
10628.937,-0.032077607,0.1453488,9.437589,0.0,0.0,0.36363637,1400729748547
10646.515,-0.31493136,0.20135473,9.333217,0.36363637,0.0,0.72727275,1400729748578
10664.093,-0.28463665,0.19632702,9.232663,0.36363637,0.0,0.72727275,1400729748616
10681.671,-0.11634752,0.097454876,9.296036,-0.36363637,0.0,0.36363637,1400729748617
10716.827,-0.17984244,0.3607469,9.459836,-0.72727275,0.0,0.0,1400729748728
10734.405,-0.22931659,0.19188008,9.5518875,0.0,0.36363637,0.72727275,1400729748728
10751.983,-0.18975866,0.23448722,9.383622,-0.72727275,-0.36363637,0.36363637,1400729748729
10769.562,-0.27173725,0.16642949,9.451039,0.36363637,0.36363637,1.0909091,1400729748729
10787.14,-0.11539717,0.11319783,9.406814,-0.36363637,0.36363637,0.72727275,1400729748731
10804.718,-0.04277314,0.11165767,9.376011,0.36363637,0.72727275,0.72727275,1400729748731
10822.296,-0.28165928,0.07236255,9.406435,-0.72727275,-0.36363637,0.0,1400729748762
10839.874,-0.10401949,0.06455012,9.4542675,0.0,0.0,0.0,1400729748764
10857.452,-0.33567527,0.24479002,9.385596,-0.36363637,-0.36363637,0.36363637,1400729748796
10875.03,-0.043171544,0.20623104,9.430743,-0.36363637,-0.36363637,0.36363637,1400729748808
10892.608,0.05317958,0.005098401,9.489723,0.72727275,0.0,0.72727275,1400729748852
10910.187,-0.27223477,0.28196347,9.516821,0.0,0.36363637,0.0,1400729748854
10927.765,0.08289711,0.029256182,9.360634,-0.36363637,0.0,0.0,1400729748854
10945.343,0.0107647665,-0.052544907,9.357265,0.0,0.0,0.36363637,1400729748885
10962.921,-0.1398239,0.49170735,9.425983,0.36363637,0.36363637,0.72727275,1400729748919
10980.499,-0.063423745,0.16632508,9.448951,-0.36363637,-0.72727275,0.0,1400729748922
10998.077,-0.15831922,0.22474305,9.39282,0.0,0.0,0.36363637,1400729748924
11015.655,-0.19032225,0.18855634,9.281331,-0.72727275,-0.36363637,0.0,1400729748954
11033.233,-0.16737254,0.070801504,9.375214,0.0,0.0,0.72727275,1400729748956
11050.812,-0.13679601,0.088739224,9.325805,-0.36363637,0.36363637,0.36363637,1400729748989
11068.39,-0.04201325,0.12639822,9.46674,0.36363637,0.36363637,1.0909091,1400729749023
11085.968,-0.18734683,0.0753228,9.46564,0.0,0.0,0.72727275,1400729749025
11103.546,-0.21049283,0.22426796,9.383318,0.0,0.36363637,0.36363637,1400729749026
11121.124,-0.17752002,0.16888854,9.500219,0.0,0.0,0.0,1400729749060
11138.702,-0.0950342,0.067757726,9.314339,-0.36363637,0.0,0.36363637,1400729749096
11156.28,-0.3335472,0.073391065,9.427005,-0.36363637,0.0,0.0,1400729749097
11173.858,-0.18705337,0.03390277,9.453566,0.36363637,0.0,0.72727275,1400729749098
11191.437,-0.1172143,0.14659858,9.258502,0.36363637,0.36363637,0.36363637,1400729749133
11209.015,-0.3125429,0.17096123,9.541674,0.0,0.0,0.0,1400729749134
11226.593,-0.07698781,0.18198325,9.149869,0.0,0.0,0.36363637,1400729749190
11244.171,-0.5044367,0.3196943,9.251029,0.36363637,0.36363637,0.72727275,1400729749191
11261.749,0.060806405,0.14079097,9.346432,-0.36363637,0.0,0.36363637,1400729749199
11279.327,-0.18767333,0.2991683,9.656836,0.0,0.36363637,0.36363637,1400729749201
11296.905,-0.23046324,0.20732743,9.452671,-0.36363637,-0.36363637,-0.36363637,1400729749254
11314.483,-0.2305643,0.23901895,9.4742565,0.0,0.72727275,0.72727275,1400729749255
11332.062,-0.1283199,0.27186626,9.314877,0.0,0.36363637,0.72727275,1400729749256
11349.64,-0.23102294,0.13993473,9.329307,-0.72727275,-0.72727275,-0.36363637,1400729749290
11367.218,-0.14732246,0.17409052,9.400178,0.36363637,0.72727275,1.0909091,1400729749324
11384.796,-0.09562889,0.19352141,9.380632,0.0,0.0,0.36363637,1400729749328
11402.374,-0.3025878,0.0826027,9.407156,-0.36363637,0.0,0.36363637,1400729749328
11419.952,-0.13572322,-0.045249343,9.299095,-0.36363637,-0.36363637,0.0,1400729749360
11437.53,-0.02203896,0.12187693,9.376314,-0.36363637,-0.36363637,0.0,1400729749362
11455.108,0.030338705,0.04823808,9.3321085,-0.36363637,0.0,0.0,1400729749394
11472.687,-0.23124838,0.3320887,9.498917,-0.36363637,-1.0909091,0.36363637,1400729749395
11490.265,-0.31367978,0.13275403,9.389774,-0.36363637,-0.36363637,0.36363637,1400729749428
11507.843,-0.10730198,0.29432008,9.355789,-0.36363637,-0.36363637,0.0,1400729749430
11525.421,-0.16605683,0.17439657,9.61038,-0.36363637,0.0,0.36363637,1400729749463
11542.999,-0.27223086,0.26050165,9.495748,0.36363637,0.36363637,0.36363637,1400729749474
11560.577,-0.17559406,0.060872633,9.5848,-0.36363637,0.0,0.0,1400729749498
11578.155,-0.07480143,0.2149728,9.401497,0.0,0.36363637,0.72727275,1400729749502
11595.733,-0.08320174,0.13965605,9.527815,-0.72727275,-0.72727275,0.0,1400729749534
11613.312,-0.2698074,0.036951773,9.514545,0.36363637,0.0,1.0909091,1400729749535
11630.89,-0.19902575,0.20831418,9.472406,-0.72727275,-0.72727275,0.36363637,1400729749569
11648.468,-0.2853188,0.27866584,9.246786,0.0,0.36363637,0.36363637,1400729749570
11666.046,-0.2638111,0.2285093,9.264064,0.0,0.0,0.36363637,1400729749605
11683.624,-0.26112333,0.124503046,9.428837,-0.36363637,0.0,0.36363637,1400729749606
11701.202,-0.22147794,0.21053503,9.312741,0.0,-0.36363637,0.36363637,1400729749638
11718.78,-0.2611175,0.09231032,9.397226,-0.36363637,0.0,0.36363637,1400729749644
11736.358,-0.04285282,0.025309188,9.281694,-0.36363637,0.0,0.36363637,1400729749678
11753.937,-0.33358216,0.26654744,9.616663,0.0,0.36363637,0.72727275,1400729749679
11771.515,-0.2520428,0.12821186,9.298931,-0.36363637,0.0,0.36363637,1400729749711
11789.093,-0.2643203,0.40842873,9.3930645,0.0,-0.36363637,0.72727275,1400729749716
11806.671,-0.16872324,0.16036282,9.329705,-0.36363637,0.0,0.36363637,1400729749755
11824.249,-0.18776079,0.25574344,9.604665,0.36363637,0.0,0.36363637,1400729749756
11841.827,-0.11557597,0.047809966,9.323546,0.0,0.0,0.72727275,1400729749758
11859.405,-0.17006227,0.18553868,9.220978,0.0,0.36363637,0.72727275,1400729749819
11876.983,-0.3252693,0.29843935,9.438174,0.72727275,0.0,0.72727275,1400729749820
11894.562,-0.20783614,0.29195625,9.716676,0.0,0.36363637,0.72727275,1400729749834
11912.14,-0.04251077,0.24193221,9.532521,-0.72727275,-0.72727275,0.36363637,1400729749836
11929.718,-0.38977483,0.3523308,9.291514,0.0,0.36363637,0.72727275,1400729749867
11947.296,-0.20925291,0.22005272,9.503096,0.36363637,0.36363637,1.0909091,1400729749873
11964.874,-0.21851224,0.15095603,9.549733,0.0,0.0,0.0,1400729749880
11982.452,-0.3252693,0.29843935,9.438174,-0.36363637,-0.36363637,0.0,1400729749916
12000.061,-0.34456924,0.26354542,9.5566225,-0.36363637,0.0,0.36363637,1400729749949
12017.608,-0.31369922,0.24006313,9.49514,0.0,0.0,0.36363637,1400729749951
12035.187,-0.28348613,0.15941784,9.310805,0.0,0.36363637,0.72727275,1400729749953
12052.765,-0.1250549,0.13867451,9.508184,0.36363637,0.0,0.72727275,1400729749983
12070.343,-0.22967419,0.06110433,9.385352,-0.36363637,0.0,0.36363637,1400729750189
12087.921,-0.3006735,0.03897226,9.5549555,0.0,0.36363637,0.72727275,1400729750189
12105.499,-0.27155066,0.18889372,9.49216,0.36363637,0.36363637,0.72727275,1400729750190
12123.077,-0.27249908,0.16241986,9.370846,0.36363637,0.36363637,0.72727275,1400729750190
12140.655,-0.31524232,0.33935294,9.44012,0.0,0.0,0.72727275,1400729750191
12158.233,-0.041451592,0.18306,9.579568,-0.36363637,-0.36363637,0.0,1400729750191
12175.812,-0.20980678,0.1204673,9.348122,0.36363637,0.36363637,0.72727275,1400729750192
12193.39,-0.20712094,0.027191948,9.523431,0.36363637,0.36363637,0.36363637,1400729750193
12210.968,-0.14732052,0.16335961,9.389641,0.36363637,0.36363637,0.72727275,1400729750193
12228.546,-0.23402557,0.40340102,9.29251,0.36363637,0.72727275,1.0909091,1400729750195
12246.124,-0.15698603,0.23175994,9.533158,-0.36363637,-0.36363637,0.36363637,1400729750196
12263.702,-0.17585838,-0.058670994,9.438825,0.0,0.0,0.0,1400729750210
12281.28,-0.17914474,0.19256078,9.36142,-0.36363637,-0.36363637,0.0,1400729750211
12298.858,-0.24030752,0.21033987,9.51292,-0.36363637,-0.36363637,0.36363637,1400729750243
12316.437,-0.08600809,0.37193203,9.479457,-0.72727275,0.36363637,0.36363637,1400729750246
12334.015,-0.35611987,0.21461254,9.394292,-0.36363637,0.0,0.0,1400729750284
12351.593,-0.22168589,0.3061108,9.387523,0.0,0.0,0.36363637,1400729750285
12369.171,-0.15688497,0.20006841,9.511572,0.0,0.72727275,0.72727275,1400729750289
12386.749,-0.36614686,0.17369895,9.392346,0.0,0.0,0.72727275,1400729750322
12404.327,-0.26180547,0.20684189,9.44296,0.36363637,0.36363637,0.72727275,1400729750326
12421.905,-0.16729675,0.17861181,9.490603,-0.36363637,-1.0909091,0.0,1400729750362
12439.483,-0.2402123,0.21084109,9.522944,0.0,0.0,0.72727275,1400729750365
12457.062,-0.36681736,0.19165234,9.343251,0.36363637,-0.36363637,0.36363637,1400729750394
12474.64,0.058958184,0.34588626,9.366705,0.36363637,0.72727275,0.72727275,1400729750430
12492.218,-0.2522566,0.25598037,9.405321,0.0,1.0909091,0.72727275,1400729750431
12509.796,-0.20741051,0.047150154,9.514432,0.36363637,0.36363637,0.36363637,1400729750433
12527.374,0.059354648,0.2620438,9.322509,-0.36363637,-0.72727275,0.36363637,1400729750466
12544.952,-0.26065886,0.19139452,9.542176,-0.36363637,0.0,0.0,1400729750467
12562.53,-0.270886,0.20313308,9.5728655,-0.36363637,0.0,0.0,1400729750500
12580.108,-0.1257351,0.21028244,9.511771,0.0,0.0,0.36363637,1400729750501
12597.687,-0.15699185,0.26395267,9.564768,0.0,-0.36363637,1.0909091,1400729750537
12615.265,-0.1888083,0.2502302,9.4944,0.0,0.36363637,0.72727275,1400729750537
12632.843,-0.16100313,0.30728748,9.206974,-0.36363637,0.0,0.0,1400729750573
12650.421,-0.25322053,0.31535378,9.3682995,-0.36363637,-0.36363637,0.36363637,1400729750609
12667.999,-0.19071484,0.25093699,9.304454,0.0,0.0,0.36363637,1400729750610
12685.577,-0.23866338,0.07935855,9.546354,0.36363637,0.36363637,0.72727275,1400729750612
12703.155,0.008349059,0.12808134,9.296321,-0.72727275,-0.36363637,-0.36363637,1400729750642
12720.733,-0.21763574,0.048157785,9.534584,0.36363637,0.36363637,0.72727275,1400729750666
12738.312,-0.25021207,0.019694751,9.3734865,0.0,0.0,0.72727275,1400729750685
12755.89,-0.23081695,0.05508987,9.265062,0.0,0.36363637,0.72727275,1400729750686
12773.468,-0.25329438,0.19681256,9.242373,0.36363637,0.36363637,1.0909091,1400729750720
12791.046,-0.23267488,0.3138397,9.338018,0.36363637,0.36363637,0.72727275,1400729750722
12808.624,-0.2097174,0.15316123,9.389755,-0.72727275,0.0,0.0,1400729750725
12826.202,-0.22110674,0.2661944,9.40552,-0.36363637,0.0,0.0,1400729750759
12843.78,-0.25207,0.2784446,9.446443,-0.36363637,0.0,0.0,1400729750793
12861.358,-0.17934492,0.24521291,9.394054,-0.36363637,-0.36363637,0.0,1400729750795
12878.937,-0.44904664,-0.07106539,9.190937,0.36363637,0.72727275,0.72727275,1400729750796
12896.515,-0.33798993,0.39372474,9.303066,-0.36363637,0.0,0.36363637,1400729750831
12914.093,-0.18936414,0.16137567,9.349962,-0.36363637,0.0,0.0,1400729750866
12931.671,-0.11645441,0.16133912,9.349232,0.0,0.0,0.36363637,1400729750867
12949.249,-0.47059512,0.20444028,9.394928,0.0,0.36363637,0.36363637,1400729750900
12966.827,-0.20905273,0.16740058,9.470461,-0.36363637,0.0,0.36363637,1400729750902
12984.405,-0.08187048,0.15740383,9.678689,0.36363637,0.0,0.0,1400729750936
13001.983,-0.23033497,0.025403164,9.283573,0.36363637,0.0,0.72727275,1400729750937
13019.562,-0.20925097,0.20932181,9.4925585,0.0,0.0,0.72727275,1400729750970
13037.14,-0.086085826,0.27485263,9.374603,-0.36363637,0.0,0.36363637,1400729750972
13054.718,-0.27260402,0.21557319,9.413505,0.0,0.0,0.72727275,1400729750974
13072.296,-0.34598795,0.2023728,9.353579,0.0,0.36363637,0.72727275,1400729751009
13089.874,-0.35600522,0.107804656,9.29895,-0.72727275,0.0,0.0,1400729751045
13107.452,-0.17855588,0.098989815,9.3267355,-0.36363637,0.0,0.0,1400729751046
13125.03,-0.3888964,0.23880166,9.265829,-0.36363637,0.0,0.0,1400729751047
13142.608,-0.23134944,0.36378023,9.520502,-0.36363637,-0.36363637,0.0,1400729751095
13160.187,-0.23939994,-0.064152926,9.329186,-0.36363637,-0.36363637,0.36363637,1400729751098
13177.765,-0.3981635,0.21262862,9.354613,0.0,0.0,0.72727275,1400729751099
13195.343,-0.062751316,0.13764079,9.48751,0.0,0.0,0.72727275,1400729751129
13212.921,-0.1477092,0.20427842,9.391691,0.0,0.0,0.72727275,1400729751166
13230.499,-0.020970063,0.009350187,9.370677,0.0,0.36363637,0.36363637,1400729751167
13248.077,-0.25166968,0.17314032,9.381174,0.36363637,0.0,0.72727275,1400729751200
13265.655,-0.29372495,0.23554184,9.404715,-0.72727275,-0.36363637,-0.36363637,1400729751201
13283.233,-0.24267465,0.122693375,9.188561,0.36363637,0.36363637,0.72727275,1400729751201
13300.812,-0.043332852,0.044264983,9.252646,-0.72727275,-0.72727275,0.72727275,1400729751234
13318.39,-0.1474002,0.07701112,9.295324,0.36363637,0.36363637,1.0909091,1400729751267
13335.968,-0.16914497,0.3837071,9.510877,0.0,0.0,0.72727275,1400729751269
13353.546,-0.15639327,0.11672716,9.4774,0.36363637,0.36363637,0.36363637,1400729751275
13371.124,-0.27326673,0.19060294,9.322263,0.0,0.0,0.0,1400729751310
13388.702,-0.21822266,0.13099784,9.558732,-0.36363637,0.0,0.72727275,1400729751338
13406.28,-0.14646345,0.16787046,9.479858,-0.36363637,-0.36363637,0.0,1400729751339
13423.858,-0.20897111,0.24301815,9.55424,-0.36363637,0.0,0.36363637,1400729751371
13441.437,-0.3552589,0.19766158,9.463436,0.72727275,0.0,0.72727275,1400729751373
13459.015,-0.13613719,0.13517131,9.43812,0.36363637,0.36363637,0.72727275,1400729751378
13476.593,-0.33442175,0.16545841,9.431617,-0.36363637,0.0,0.36363637,1400729751419
13494.171,-0.1561892,0.0426132,9.423693,0.0,0.0,1.4545455,1400729751421
13511.749,-0.1583095,0.1710885,9.3401375,0.0,0.0,0.36363637,1400729751446
13529.327,-0.17905341,0.21452379,9.392517,0.0,0.0,0.36363637,1400729751478
13546.905,-0.26379752,0.15339293,9.190308,0.36363637,0.0,0.72727275,1400729751481
13564.483,-0.33615336,0.2530149,9.346012,0.0,0.36363637,0.72727275,1400729751482
13582.062,-0.27250683,0.20534348,9.4129925,-0.72727275,-0.72727275,0.36363637,1400729751514
13599.64,-0.11703161,0.19052462,9.320697,0.36363637,0.0,0.36363637,1400729751550
13617.218,-0.105463475,0.14287932,9.388199,0.0,0.36363637,0.72727275,1400729751551
13634.796,-0.1282927,0.12163354,9.167365,0.36363637,0.72727275,1.0909091,1400729751553
13652.374,-0.31416956,0.20536438,9.41341,0.0,0.36363637,-0.36363637,1400729751585
13669.952,-0.13804565,0.14660901,9.258711,-0.36363637,0.0,0.36363637,1400729751619
13687.53,-0.0848187,0.120404646,9.3468685,0.0,-0.36363637,0.0,1400729751620
13705.108,-0.13689707,0.12043075,9.34739,-0.36363637,0.0,0.36363637,1400729751627
13722.687,-0.16995928,0.14311624,9.188855,-0.36363637,-0.36363637,0.0,1400729751659
13740.265,-0.20038617,0.35153005,9.47958,0.36363637,0.0,0.72727275,1400729751662
13757.843,-0.062292658,0.236725,9.63246,0.0,0.0,0.36363637,1400729751677
13775.421,-0.19956991,0.055074204,9.26475,0.0,0.0,0.36363637,1400729751710
13792.999,-0.24089056,0.2717181,9.515995,10.909091,21.818182,1.0909091,1400729751717
13810.577,-0.16013636,0.25814378,9.244509,13.090909,26.545454,0.72727275,1400729751749
13828.155,-0.917169,0.3941071,9.718877,5.4545455,10.545455,1.0909091,1400729751784
13845.733,-0.37648675,0.28151447,9.50784,-4.7272725,-8.727273,0.0,1400729751786
13863.312,-0.0662845,0.17275073,9.1693,6.5454545,13.090909,0.72727275,1400729751788
13880.89,-1.0026258,-0.22707659,10.968673,-1.4545455,0.0,0.36363637,1400729751818
13898.468,0.8792491,-1.6635475,9.17803,-0.36363637,-0.72727275,10.545455,1400729751851
13916.046,0.059216663,0.4976226,9.544289,-1.8181819,0.0,12.0,1400729751852
13933.624,-0.23543335,-0.38699263,9.403005,0.36363637,0.36363637,0.0,1400729751852
13951.202,-0.5011989,0.3367353,9.591848,-0.72727275,0.36363637,2.5454545,1400729751884
13968.78,-0.51001704,-0.58933055,8.825634,-0.36363637,-0.72727275,-0.72727275,1400729751919
13986.358,-0.33472687,0.2712639,9.50691,-0.72727275,-1.0909091,-2.1818182,1400729751919
14003.937,-0.56194186,0.14190103,9.572715,-0.36363637,0.0,6.5454545,1400729751951
14021.515,-0.14467743,-0.22015151,9.270439,0.0,0.72727275,7.6363635,1400729751952
14039.093,-0.46059802,-0.25851804,9.93168,-2.5454545,-5.4545455,0.0,1400729751986
14056.671,-0.38038796,-0.4253323,9.452538,-5.090909,-10.181818,-8.0,1400729751990
14074.249,-0.22744116,-0.6897637,8.857786,-1.8181819,-2.1818182,2.909091,1400729752023
14091.827,-0.29515848,0.39873627,8.382889,-11.636364,-25.09091,-0.36363637,1400729752024
14109.405,-0.26656646,-1.1586204,9.684734,-16.727272,-30.545454,1.0909091,1400729752030
14126.983,-0.03730937,-0.440726,8.328337,-13.454545,-28.727272,-2.5454545,1400729752066
14144.562,-0.26258942,-0.8702791,9.329112,-10.545455,-21.09091,-0.36363637,1400729752069
14162.14,-0.057045344,0.21063675,10.131103,-11.272727,-19.636364,2.1818182,1400729752080
14179.718,-0.4237789,-0.07144632,7.5506654,-12.727273,-26.90909,-4.7272725,1400729752115
14197.296,-0.0014558866,-0.89761066,10.415134,-0.36363637,2.909091,-0.36363637,1400729752164
14214.874,1.1170912,-0.3108254,8.273288,0.72727275,0.36363637,2.909091,1400729752165
14232.452,0.77081287,0.38702092,10.801643,0.0,-0.72727275,-0.72727275,1400729752165
14250.03,0.043257542,0.43734726,9.971435,-1.0909091,0.0,-4.0,1400729752185
14267.608,0.95002055,-0.6244443,7.9192777,-0.72727275,1.0909091,5.090909,1400729752189
14285.187,0.17519493,0.772374,8.916866,-1.0909091,-1.0909091,1.0909091,1400729752222
14302.765,0.3910218,0.8655193,9.759366,0.0,2.5454545,-4.7272725,1400729752223
14320.343,-0.09577076,-0.60206956,8.570854,-0.72727275,-1.4545455,-1.4545455,1400729752259
14337.921,-0.06162411,0.22950253,9.692091,-0.72727275,2.909091,-8.363636,1400729752260
14355.499,0.96755433,-0.5966079,9.700494,0.36363637,2.1818182,-5.090909,1400729752294
14373.077,0.10355476,-0.20685463,10.148622,0.0,0.72727275,-1.8181819,1400729752299
14390.655,0.23400736,-1.6734128,7.143989,0.0,-3.2727273,-6.5454545,1400729752331
14408.233,0.59268796,0.058185857,9.3269825,0.0,1.8181819,2.1818182,1400729752332
14425.812,0.07840507,-0.04697296,9.876867,-0.36363637,1.8181819,-1.4545455,1400729752363
14443.39,0.33095634,-0.055027537,10.1239395,-1.8181819,4.3636365,-2.1818182,1400729752370
14460.968,0.5301043,0.6518646,13.0372925,-1.8181819,2.1818182,-1.0909091,1400729752403
14478.546,-0.12371004,0.081305936,9.585302,0.72727275,0.0,1.4545455,1400729752409
14496.124,1.1558613,-0.27124584,9.064879,-0.72727275,-3.6363637,0.0,1400729752442
14513.702,-0.1630146,-0.16516815,8.533372,0.0,2.909091,-0.36363637,1400729752443
14531.28,0.19547555,-0.013519291,9.11737,-1.4545455,-1.8181819,-0.72727275,1400729752450
14548.858,-1.4237391,-0.8616054,10.931157,0.0,3.2727273,3.2727273,1400729752484
14566.437,0.63302326,-0.5073604,8.628302,0.36363637,2.1818182,3.2727273,1400729752496
14584.015,0.56423223,0.15031818,11.781874,3.6363637,5.090909,2.5454545,1400729752498
14601.593,-0.19114433,-0.5354267,8.475141,1.0909091,-2.1818182,2.909091,1400729752530
14619.171,0.066748746,-0.18127227,10.660269,-3.6363637,-0.72727275,1.0909091,1400729752564
14636.749,-0.7571169,-1.207794,8.497182,0.36363637,0.72727275,0.72727275,1400729752566
14654.327,1.1543835,-0.14901094,10.081006,0.72727275,0.72727275,0.72727275,1400729752599
14671.905,0.0786152,-0.779621,6.0402327,2.1818182,-3.2727273,0.36363637,1400729752601
14689.483,0.50947016,0.6591789,8.897864,1.8181819,1.8181819,-0.36363637,1400729752632
14707.062,-0.025513362,0.073604934,11.063935,-1.4545455,1.4545455,0.36363637,1400729752633
14724.64,0.5542793,-0.39839557,8.154537,0.36363637,0.36363637,1.4545455,1400729752669
14742.218,0.02872127,0.3167571,7.355551,0.36363637,1.4545455,-0.36363637,1400729752670
14759.796,0.5741739,0.56336623,9.022427,-2.1818182,1.4545455,-0.72727275,1400729752700
14777.374,0.98583466,0.4736913,9.473826,0.72727275,0.36363637,1.0909091,1400729752702
14794.952,-0.30234462,0.22016075,6.4440317,0.72727275,-3.2727273,-1.8181819,1400729752736
14812.53,0.97116214,-0.37465692,9.241555,-1.4545455,0.36363637,1.0909091,1400729752739
14830.108,-0.32224408,-0.23231763,10.251607,-3.2727273,-0.72727275,0.72727275,1400729752772
14847.687,-1.1367222,-0.31903535,8.925415,0.72727275,1.0909091,0.0,1400729752772
14865.265,-0.19307418,1.1729984,9.990581,-0.36363637,0.36363637,2.1818182,1400729752805
14882.843,1.263059,0.5910195,8.14692,-1.4545455,-2.5454545,-1.8181819,1400729752808
14900.421,0.8856015,-0.56562215,11.952863,1.0909091,4.7272725,-1.4545455,1400729752841
14917.999,-0.20554286,0.26106155,9.915109,-0.36363637,0.0,1.4545455,1400729752843
14935.577,0.08915696,0.20183757,10.159201,-2.909091,-3.2727273,0.36363637,1400729752873
14953.155,-1.0062174,-0.39635512,10.440245,1.0909091,-0.72727275,-0.72727275,1400729752875
14970.733,1.1234629,0.15347502,10.416439,-1.4545455,2.1818182,-0.36363637,1400729752915
14988.312,-0.82701504,0.44186512,11.490363,0.0,2.909091,1.0909091,1400729752918
15005.89,-0.75316054,0.9160545,8.933334,-0.36363637,-2.5454545,-3.2727273,1400729752943
15023.468,0.3417772,-0.14330466,5.909417,2.5454545,-2.5454545,3.2727273,1400729752974
15041.046,0.7331267,-0.089478016,7.5981946,-0.72727275,-0.72727275,0.0,1400729752977
15058.624,0.6315159,0.06360857,8.0068655,-2.909091,-4.0,-0.72727275,1400729752978
15076.202,0.22111888,1.3114742,10.923363,-1.0909091,1.4545455,-1.8181819,1400729753011
15111.358,-0.34019014,-1.0430702,10.771249,-6.181818,-4.0,-1.8181819,1400729753115
15128.937,0.035904743,-0.6850878,9.155387,-1.4545455,-2.909091,-2.909091,1400729753117
15146.515,-0.307624,0.37944937,10.242048,-0.36363637,2.1818182,2.1818182,1400729753118
15164.093,0.4067737,0.10725864,7.4512954,-1.0909091,-2.909091,-2.909091,1400729753118
15181.671,0.4486339,-0.07320324,8.331854,0.0,-0.72727275,0.0,1400729753119
15199.249,0.31621575,-0.0014781298,10.786764,-1.8181819,2.1818182,-1.0909091,1400729753135
15216.827,2.708219,0.8835282,3.9970942,-8.363636,-16.0,-0.72727275,1400729753136
15234.405,0.13278133,0.039164174,9.15063,-0.72727275,0.72727275,0.72727275,1400729753171
15251.983,0.9713315,-0.35564008,6.1525044,1.0909091,-3.2727273,4.3636365,1400729753204
15269.562,-0.9680157,-0.3320195,7.033079,1.0909091,1.4545455,-0.36363637,1400729753207
15287.14,-0.84157896,0.7592782,7.22638,-0.72727275,0.72727275,1.0909091,1400729753208
15304.718,-2.2321079,-2.093219,13.23766,-5.4545455,9.090909,-2.5454545,1400729753241
15322.296,1.1959932,0.42847317,8.569464,4.0,0.72727275,4.0,1400729753283
15339.874,-0.49420875,-0.07984025,7.7909503,-0.36363637,-2.1818182,0.36363637,1400729753289
15357.452,0.28298908,1.0718545,10.620763,-0.72727275,1.0909091,-2.1818182,1400729753291
15375.03,-0.26585513,0.17702447,11.09151,0.36363637,2.909091,-1.4545455,1400729753315
15392.608,-0.95311207,0.9183234,10.815447,0.36363637,-0.36363637,-3.6363637,1400729753346
15410.187,-0.31445524,-0.32245502,8.857021,-1.0909091,0.36363637,0.36363637,1400729753347
15427.765,-0.3709868,-0.61327624,9.163046,-0.72727275,-1.4545455,-0.36363637,1400729753347
15445.343,-0.018862149,-0.19325943,10.420526,0.0,0.36363637,-4.3636365,1400729753380
15462.921,-0.10040662,0.64210445,10.393109,2.1818182,4.7272725,-8.0,1400729753388
15480.499,-0.22311117,0.13861114,10.119162,-0.72727275,1.0909091,-5.4545455,1400729753423
15498.077,0.46266246,0.50434583,9.270591,-1.4545455,-0.36363637,-2.1818182,1400729753425
15515.655,0.27680963,-0.45480603,7.4344916,0.0,1.0909091,-2.1818182,1400729753459
15533.233,-0.26553252,-0.551675,10.395072,1.0909091,4.7272725,0.72727275,1400729753460
15550.812,0.16629636,0.14775562,9.485724,1.0909091,-1.0909091,3.2727273,1400729753494
15568.39,0.30702713,0.7342638,10.603642,0.0,1.0909091,0.0,1400729753496
15585.968,0.32700604,0.32048464,9.062755,0.72727275,-2.5454545,2.909091,1400729753528
15603.546,0.3278665,0.06498833,6.809971,-0.72727275,-2.909091,2.909091,1400729753530
15621.124,0.5016813,-0.30331525,9.239818,-3.2727273,-3.6363637,-0.72727275,1400729753562
15638.702,-0.62926686,-0.3109014,10.720748,-1.4545455,3.2727273,0.0,1400729753565
15656.28,0.6658678,-0.9071314,8.387985,2.1818182,-0.36363637,2.1818182,1400729753598
15673.858,-0.33271345,0.20667283,9.643661,0.36363637,-0.36363637,-2.1818182,1400729753603
15691.437,-0.36321688,-0.35755923,10.195754,-1.0909091,-2.1818182,-1.4545455,1400729753637
15709.015,0.32582223,-0.41278672,11.3361025,-0.72727275,1.8181819,-2.1818182,1400729753640
15726.593,1.1840991,-0.640438,9.436137,0.72727275,-0.36363637,2.1818182,1400729753672
15744.171,-0.35788137,-1.2543344,8.790862,-0.72727275,0.0,-0.36363637,1400729753679
15761.749,0.3206082,1.4361136,9.5386,-0.72727275,-0.72727275,4.0,1400729753712
15779.327,0.6787233,-1.078014,7.419312,-0.36363637,-3.2727273,10.181818,1400729753713
15796.905,-0.6503953,0.1782811,8.055418,0.36363637,0.72727275,3.2727273,1400729753725
15814.483,-0.18727055,-1.1572689,10.324009,0.0,0.36363637,5.090909,1400729753759
15832.062,1.0063913,0.26927203,10.2834,-0.36363637,-1.4545455,-0.72727275,1400729753761
15849.64,0.35453328,0.3331147,8.703111,1.0909091,1.4545455,-4.7272725,1400729753794
15867.218,0.14629413,0.16398989,10.626737,1.4545455,3.6363637,0.36363637,1400729753797
15884.796,-0.26097977,-0.043242924,12.400448,-1.4545455,1.0909091,6.909091,1400729753833
15902.374,-0.26141316,-0.80814475,11.592207,-2.1818182,1.0909091,2.1818182,1400729753833
15919.952,0.614018,-0.73292506,9.6272135,-3.6363637,-4.0,-4.3636365,1400729753864
15937.53,0.16970055,-0.3702656,10.34979,1.0909091,4.0,-6.909091,1400729753865
15955.108,0.24554367,0.41737986,10.388413,-0.36363637,1.4545455,0.0,1400729753899
15972.687,0.94122183,-0.07887187,8.626644,-1.0909091,0.0,-0.72727275,1400729753900
15990.265,0.2578304,-0.15503691,7.9196696,0.36363637,-2.1818182,-1.0909091,1400729753932
16007.843,1.0259687,0.11004785,7.9152427,1.4545455,-1.8181819,-1.0909091,1400729753933
16025.421,0.35104334,0.37069,10.475024,-2.5454545,-2.5454545,-11.636364,1400729753976
16042.999,1.0085235,1.555333,8.657681,-0.72727275,-2.5454545,-4.0,1400729753977
16060.577,0.120996736,-0.9658424,9.050498,-0.36363637,-1.0909091,-10.545455,1400729753980
16078.155,-0.419548,0.7778892,8.82309,5.090909,9.818182,-4.0,1400729754017
16095.733,-0.59412175,-0.49672025,8.841105,8.727273,13.454545,4.3636365,1400729754045
16113.312,0.46904936,0.6442537,9.007523,4.7272725,9.454545,6.181818,1400729754047
16130.89,-0.31954318,0.40264598,9.073328,8.0,14.545455,5.818182,1400729754051
16148.468,0.1718126,0.35826895,9.206195,-11.272727,-24.363636,5.090909,1400729754084
16166.046,0.43657407,1.6367307,9.877471,2.1818182,3.6363637,3.2727273,1400729754120
16183.624,0.03297281,0.38321707,8.888831,0.0,0.0,4.3636365,1400729754123
16201.202,0.13254035,0.3171654,9.404532,0.36363637,1.4545455,2.909091,1400729754133
16218.78,0.16683663,0.32245743,9.714455,0.72727275,1.0909091,3.2727273,1400729754165
16236.358,0.06670939,0.84743214,9.601705,-0.72727275,-1.0909091,2.909091,1400729754167
16253.937,-0.1740257,0.34839678,10.0291605,-1.4545455,-1.0909091,2.1818182,1400729754170
16271.515,-0.049481925,0.3126533,8.906128,-4.3636365,-9.090909,3.6363637,1400729754202
16289.093,-0.038663227,0.86144847,8.453459,-0.72727275,-3.6363637,0.36363637,1400729754236
16306.671,0.47990814,0.30286413,8.710344,-7.6363635,-14.909091,-0.36363637,1400729754238
16324.249,0.06095921,0.20716089,10.4697485,-0.72727275,1.4545455,2.1818182,1400729754273
16341.827,0.009152433,0.5715774,8.778487,0.0,-0.36363637,2.1818182,1400729754274
16359.405,0.17160003,0.33678678,10.205123,-0.72727275,2.1818182,2.909091,1400729754307
16376.983,0.1796804,0.21596026,8.809001,1.4545455,1.0909091,0.36363637,1400729754311
16394.563,-0.31534413,0.2325247,10.364779,-0.36363637,1.0909091,0.72727275,1400729754343
16412.14,0.45562643,-0.26196435,8.842345,0.36363637,0.36363637,2.1818182,1400729754344
16429.719,-0.19766217,-0.09488328,10.347233,-0.36363637,1.0909091,1.0909091,1400729754378
16447.297,0.38336265,0.5244562,8.65239,1.4545455,0.72727275,-0.36363637,1400729754382
16464.875,-0.009609872,0.05728066,9.51296,0.72727275,1.0909091,1.4545455,1400729754411
16482.453,-0.22323482,0.96390915,9.890428,0.0,1.8181819,-1.0909091,1400729754412
16500.031,0.056118805,0.2342719,8.971152,0.72727275,0.36363637,0.36363637,1400729754444
16517.61,0.008871847,0.3993613,9.61988,-2.909091,-5.818182,-1.8181819,1400729754447
16535.188,0.051222526,0.28480887,9.573729,-0.36363637,0.0,1.0909091,1400729754481
16552.766,0.5013568,-0.09020067,9.420476,-0.72727275,0.0,2.5454545,1400729754482
16570.344,-0.03259578,1.0437584,9.242514,0.72727275,0.0,0.0,1400729754514
16587.922,-0.20048334,0.36175975,9.480093,-0.36363637,0.36363637,0.72727275,1400729754516
16605.5,0.30892152,0.5593971,8.534881,0.36363637,-0.36363637,0.36363637,1400729754550
16623.078,-0.01814113,-0.49021646,10.19567,0.36363637,1.4545455,0.72727275,1400729754552
16640.656,-0.0035591847,0.4746885,9.49377,0.36363637,-0.36363637,0.0,1400729754583
16658.234,0.10816924,-0.280357,9.494901,-0.36363637,0.36363637,1.0909091,1400729754584
16675.813,0.1666423,-0.18339896,9.189163,1.0909091,1.0909091,0.72727275,1400729754616
16693.39,0.34284586,-0.15580584,9.128781,0.36363637,0.72727275,0.72727275,1400729754623
16710.969,0.32498607,-0.24756713,9.334372,-0.36363637,-1.4545455,-1.0909091,1400729754658
16728.547,0.33680683,-0.11128335,9.611068,0.0,0.72727275,-0.36363637,1400729754692
16746.125,-0.054564774,0.34072605,9.467582,0.36363637,1.0909091,-1.0909091,1400729754695
16763.703,0.309257,0.14337729,9.194077,0.0,0.0,0.0,1400729754696
16781.281,-0.16959779,0.25243017,9.334317,0.0,-0.72727275,-1.4545455,1400729754735
16798.86,-0.0029139596,0.59623694,9.679841,-0.72727275,-0.72727275,-1.4545455,1400729754737
16816.438,-0.043431237,1.256377,9.413253,-0.36363637,-0.72727275,-1.4545455,1400729754763
16834.016,-0.062372338,0.15037651,9.538142,0.0,-0.36363637,0.36363637,1400729754764
16851.594,0.0935013,0.04098428,9.391114,0.0,0.0,0.72727275,1400729754795
16869.172,0.061393328,0.057950914,9.322284,0.0,0.36363637,0.72727275,1400729754795
16886.75,0.03920739,0.16898449,9.298058,-0.36363637,-0.36363637,0.36363637,1400729754828
16904.328,0.08181461,0.2168993,9.440027,0.36363637,0.0,0.72727275,1400729754834
16921.906,0.19545612,0.09378981,9.222735,0.0,0.0,0.72727275,1400729754845
16939.484,0.07375051,-0.13591748,9.322467,-0.36363637,0.0,0.36363637,1400729754881
16957.063,0.031497,-0.031594735,9.368105,0.0,0.36363637,0.72727275,1400729754882
16974.64,0.083485976,-0.064314775,9.32595,-0.72727275,-0.72727275,-0.36363637,1400729754913
16992.219,-0.020674659,-0.042800747,9.348066,0.36363637,0.72727275,1.0909091,1400729754915
17009.797,0.01740432,0.27129197,9.3033905,-0.72727275,-0.36363637,-0.36363637,1400729754949
17027.375,0.05337587,-0.026091918,9.478162,0.0,0.36363637,0.36363637,1400729754951
17044.953,-0.032833606,0.10914642,9.325786,0.0,0.0,0.72727275,1400729754985
17062.531,0.032812715,0.07200033,9.6032715,-0.36363637,-0.36363637,0.72727275,1400729754986
17080.11,0.09398716,-0.010164241,9.388552,-0.36363637,0.0,0.36363637,1400729755019
17097.688,-4.4189184E-4,0.10441432,9.4352255,-0.36363637,0.0,0.0,1400729755021
17115.266,-0.007784973,-0.019043718,9.619125,-0.36363637,-0.36363637,0.0,1400729755055
17132.844,0.10344083,0.038473032,9.340889,0.0,0.0,0.72727275,1400729755056
17150.422,-0.07313589,-0.034048554,9.319029,-0.36363637,-0.36363637,0.36363637,1400729755089
17168.0,0.06445231,0.009604028,9.579836,-0.36363637,-0.36363637,0.36363637,1400729755093
17185.578,0.10582933,0.008079529,9.549346,-0.36363637,0.0,0.36363637,1400729755123
17203.156,0.19284801,0.28414455,9.152279,-0.72727275,0.0,1.8181819,1400729755132
17220.734,0.259906,1.0159303,9.298198,0.0,0.36363637,2.1818182,1400729755166
17238.313,-0.035260975,0.35415813,9.32806,-0.36363637,1.0909091,6.181818,1400729755167
17255.89,-0.24532746,1.0861748,9.886762,-0.36363637,0.72727275,3.6363637,1400729755197
17273.469,0.12775946,0.92573005,9.535008,0.0,0.72727275,0.72727275,1400729755202
17291.047,0.21579188,0.19858244,9.277771,-0.72727275,0.0,1.0909091,1400729755235
17308.625,0.2600802,0.4379444,9.779297,0.0,0.0,1.8181819,1400729755237
17326.203,0.051321644,0.26384825,9.562679,0.72727275,1.8181819,2.909091,1400729755277
17343.781,-0.061480295,0.48804677,9.965017,-0.72727275,-0.72727275,-0.72727275,1400729755278
17361.36,-0.063376375,1.0999346,9.345631,0.0,-0.72727275,-0.72727275,1400729755306
17378.938,-0.08827658,1.603727,8.401069,-0.36363637,-1.0909091,0.36363637,1400729755308
17396.516,-0.19654979,0.22134551,9.733033,0.72727275,1.0909091,-1.0909091,1400729755343
17414.094,-0.2154202,0.44649947,10.154479,-0.72727275,0.36363637,-0.36363637,1400729755344
17431.672,0.23340683,0.5898068,9.347157,0.72727275,0.36363637,0.36363637,1400729755376
17449.25,0.44589218,0.56981385,10.784032,-0.72727275,1.8181819,0.72727275,1400729755403
17466.828,0.16333988,0.96776634,7.926755,0.72727275,-3.2727273,-1.0909091,1400729755404
17484.406,-0.020605909,0.77276874,9.128844,-0.72727275,0.0,2.909091,1400729755406
17501.984,0.6485308,0.32501888,9.969766,0.36363637,1.4545455,1.0909091,1400729755440
17519.563,0.6450683,1.1649674,9.421798,-2.909091,0.0,1.4545455,1400729755443
17537.14,-1.3828068,0.9679071,9.562223,7.6363635,10.909091,1.0909091,1400729755490
17554.719,-0.33223197,0.99107236,8.392876,-1.4545455,-3.2727273,-0.72727275,1400729755493
17572.297,0.7083779,0.20364472,9.583098,-0.36363637,1.0909091,0.36363637,1400729755514
17589.875,0.11763408,0.51798105,8.114722,0.36363637,0.0,5.4545455,1400729755516
17607.453,0.45606226,-0.84819543,10.38303,0.36363637,-0.36363637,2.1818182,1400729755549
17625.031,0.28689104,-0.18804212,7.667729,0.0,-2.909091,4.3636365,1400729755550
17642.61,1.3241042,-0.9266624,10.650426,-1.8181819,0.0,4.0,1400729755585
17660.188,0.5315167,-0.54594696,9.8973875,0.72727275,1.8181819,3.6363637,1400729755587
17677.766,0.51866394,-0.24727549,9.95245,-0.36363637,0.36363637,2.909091,1400729755625
17695.344,0.5303455,0.27383777,9.558389,-1.4545455,-4.7272725,2.909091,1400729755626
17712.922,-0.10176898,-0.25658035,9.358189,-1.4545455,-4.3636365,2.5454545,1400729755657
17730.5,-0.21981362,0.11076437,8.337736,1.0909091,1.4545455,2.5454545,1400729755659
17748.078,0.47994432,-0.5658587,8.886908,0.72727275,-2.5454545,-0.36363637,1400729755698
17765.656,-0.14706519,-0.051238235,8.158909,0.72727275,-0.36363637,-0.72727275,1400729755700
17783.234,0.6314763,-0.38660878,8.594355,-0.36363637,-1.0909091,-2.909091,1400729755734
17800.813,0.22961444,-1.2442868,8.175489,-0.72727275,-1.0909091,-5.090909,1400729755735
17818.39,0.6631905,0.3343717,8.3200865,0.36363637,-3.6363637,-4.7272725,1400729755765
17835.969,1.2152134,0.3770186,8.356699,-1.4545455,-0.72727275,-6.5454545,1400729755767
17853.547,-0.50969225,0.67647666,6.998921,0.72727275,-1.8181819,-1.4545455,1400729755804
17871.125,0.718984,0.20464191,9.603043,-1.8181819,-2.5454545,-1.8181819,1400729755805
17888.703,0.8829363,0.93776006,5.8980584,0.72727275,-0.36363637,1.4545455,1400729755835
17906.281,0.951886,-0.8260922,11.029177,-0.72727275,0.72727275,-1.0909091,1400729755837
17923.86,1.4150618,0.5171977,9.7317095,-2.5454545,2.5454545,-6.181818,1400729755871
17941.438,-0.62910455,0.9421904,7.8234005,1.0909091,-1.4545455,4.3636365,1400729755874
17959.016,-0.10745235,-0.596867,9.491231,-0.72727275,0.0,-4.7272725,1400729755904
17976.594,0.21575399,-0.68865603,12.55341,-0.36363637,-0.36363637,-0.72727275,1400729755906
17994.172,-1.6727556,0.44101033,10.248778,1.0909091,2.5454545,-4.7272725,1400729755914
18011.75,-1.3510448,0.22946347,8.874984,-0.36363637,1.0909091,-2.909091,1400729755946
18029.328,-0.10801644,0.6976041,8.645961,-1.8181819,-2.5454545,10.181818,1400729755979
18046.906,-0.89454865,-0.5801971,13.089935,-0.72727275,0.72727275,10.181818,1400729755983
18064.484,1.1888503,-0.27395278,8.194414,1.0909091,-2.909091,8.363636,1400729755985
18082.063,0.51982415,0.7147924,11.030541,1.4545455,2.1818182,3.2727273,1400729756015
18099.64,0.23005438,0.1532579,8.575362,3.2727273,1.0909091,1.8181819,1400729756024
18117.219,-0.20725383,-0.9605733,9.564044,-1.0909091,3.6363637,-1.4545455,1400729756057
18134.797,0.31386006,2.139498,7.483836,0.36363637,-1.0909091,-4.7272725,1400729756065
18152.375,-0.07152477,0.54371136,10.0579,-1.4545455,-2.1818182,-1.4545455,1400729756104
18169.953,-0.6208245,-0.61018443,11.265699,-2.1818182,-3.6363637,-4.3636365,1400729756105
18187.531,0.5452965,0.35252702,11.132174,-1.0909091,-1.8181819,-8.727273,1400729756137
18205.11,0.8320138,0.10382314,3.0968711,2.5454545,-3.2727273,-3.6363637,1400729756138
18222.688,-0.031612635,0.45078564,11.872855,-0.72727275,-0.36363637,-8.727273,1400729756152
18240.266,-1.1866652,0.2807544,7.6559043,1.8181819,-2.5454545,-0.72727275,1400729756181
18257.844,0.102074586,-0.31243417,8.853357,1.4545455,2.1818182,2.5454545,1400729756183
18275.422,-0.48605794,0.17788161,8.863754,1.4545455,2.5454545,-2.909091,1400729756212
18293.0,-1.6899834,-0.26817238,11.983491,-0.72727275,1.8181819,2.5454545,1400729756220
18310.578,0.011455906,-0.32705808,10.193533,1.4545455,0.36363637,0.0,1400729756247
18328.156,-0.7711663,0.15018962,11.575221,2.1818182,1.4545455,4.0,1400729756282
18345.734,1.1459383,0.7365439,5.955368,-1.4545455,-4.0,2.5454545,1400729756285
18363.313,0.3469463,-0.59273696,12.226893,0.0,1.8181819,2.5454545,1400729756287
18380.89,0.14354925,-0.6119588,10.617967,-2.1818182,-2.5454545,2.909091,1400729756317
18398.469,0.23697646,-0.41405156,6.6169276,-2.1818182,-4.7272725,-1.8181819,1400729756323
18416.047,-1.1976466,0.34558523,10.789256,-1.0909091,0.36363637,-1.0909091,1400729756358
18433.625,0.78584594,0.3412766,6.0092053,1.4545455,-4.7272725,2.1818182,1400729756359
18451.203,-0.28364694,-1.3429502,9.875689,-1.4545455,-3.6363637,1.4545455,1400729756392
18468.781,-0.07976427,0.39181533,8.040388,-0.72727275,-5.090909,-4.7272725,1400729756394
18486.36,1.002354,-0.21272688,10.439341,-1.8181819,-0.36363637,3.6363637,1400729756426
18503.938,0.8678853,-0.21109433,7.4107666,0.0,-0.72727275,-1.4545455,1400729756427
18521.516,1.0875065,0.12646629,7.8354483,-1.0909091,-2.1818182,1.0909091,1400729756460
18539.094,0.08730218,-0.22570996,10.587841,-1.0909091,-0.36363637,-2.909091,1400729756462
18556.672,-1.0989491,0.48865888,10.385423,1.0909091,-1.4545455,1.0909091,1400729756494
18574.25,0.0387621,-1.4841379,10.725406,-1.8181819,-1.0909091,1.8181819,1400729756497
18591.828,0.3784698,0.314986,6.9119644,0.72727275,-3.6363637,4.7272725,1400729756528
18609.406,0.2993641,-0.6379691,8.465108,0.0,-1.4545455,1.8181819,1400729756561
18626.984,0.54226977,-0.9727029,10.545942,-0.36363637,0.36363637,-2.909091,1400729756563
18644.563,1.0754241,0.52474356,7.025483,0.36363637,-5.818182,0.72727275,1400729756565
18662.14,0.3961666,-0.45854855,11.033111,-1.8181819,-1.8181819,4.3636365,1400729756596
18679.719,0.79469615,-0.0062087886,9.671742,-1.4545455,1.4545455,2.5454545,1400729756600
18697.297,1.2641447,-0.28292102,8.423212,-1.0909091,-3.2727273,1.0909091,1400729756635
18714.875,1.5404896,-1.6695052,9.67112,0.0,0.36363637,-1.0909091,1400729756640
18732.453,0.05894458,-0.63162893,8.387829,0.72727275,-1.8181819,3.6363637,1400729756673
18750.031,-0.25881064,-0.013700765,9.521903,-1.0909091,-2.5454545,0.0,1400729756679
18767.61,0.32889238,-0.23774861,9.734823,-1.4545455,-1.4545455,0.72727275,1400729756694
18785.188,-0.5176905,0.058834504,9.748118,-0.72727275,1.4545455,-1.0909091,1400729756700
18802.766,0.25107545,-0.51058567,8.97196,0.36363637,-2.5454545,1.8181819,1400729756733
18820.344,0.08666935,-0.2731241,9.435477,-1.8181819,-1.4545455,0.72727275,1400729756765
18837.922,0.44883674,0.52824926,7.911924,1.8181819,1.0909091,-1.4545455,1400729756767
18855.5,0.27130166,0.05661814,10.520118,-2.1818182,0.36363637,-0.72727275,1400729756801
18873.078,0.19236676,0.9786668,8.7570095,2.909091,-1.0909091,2.1818182,1400729756804
18890.656,0.601269,-0.33815622,8.74708,0.72727275,-1.8181819,-1.4545455,1400729756809
18908.234,-0.20854501,-1.34219,10.094976,-1.8181819,-3.2727273,1.0909091,1400729756846
18925.813,0.112402804,-0.35586423,8.801083,-0.36363637,-1.0909091,0.0,1400729756877
18943.39,0.21555455,-1.0237999,11.156654,-1.0909091,0.0,2.5454545,1400729756878
18960.969,1.3113455,-0.47823903,9.822974,0.0,-2.1818182,2.5454545,1400729756880
18978.547,-0.21847385,-0.3022075,7.0170746,1.4545455,-2.909091,3.2727273,1400729756937
18996.125,0.3220998,-1.0542456,11.364067,-1.4545455,1.4545455,3.2727273,1400729756939
19013.703,-0.03556877,-0.72045684,9.264333,1.0909091,0.0,5.4545455,1400729756941
19031.281,0.009741783,-0.8623955,9.486783,-0.72727275,0.72727275,1.4545455,1400729756978
19048.86,0.63683903,-0.38098517,8.094583,0.72727275,-2.1818182,1.4545455,1400729756978
19066.438,0.7057238,0.26374528,8.33613,0.36363637,-2.5454545,1.8181819,1400729757007
19084.016,-0.21310823,-0.3565399,10.624304,-1.8181819,2.909091,2.5454545,1400729757014
19101.594,-1.2708243,0.6738302,7.9663997,0.72727275,-0.72727275,0.36363637,1400729757043
19119.172,0.22092381,-0.38553348,10.248514,-0.72727275,1.4545455,0.72727275,1400729757045
19136.75,0.3576817,-0.20885403,8.475981,-0.36363637,-1.4545455,-0.36363637,1400729757080
19154.328,0.41354904,-0.7463584,9.358546,0.72727275,-0.72727275,0.0,1400729757081
19171.906,0.09388343,-0.106261574,10.323748,-0.72727275,0.36363637,2.1818182,1400729757114
19189.484,0.017542304,0.035713166,9.081611,0.72727275,-0.36363637,2.5454545,1400729757116
19207.063,-0.106548645,-0.3235822,9.854886,-0.72727275,0.36363637,5.4545455,1400729757147
19224.64,0.20484371,-0.54535353,8.480684,0.72727275,-0.72727275,1.8181819,1400729757149
19242.219,-0.047410935,-0.2123848,9.629855,-1.0909091,-0.36363637,0.36363637,1400729757190
19259.797,0.21136203,-0.22103582,9.456835,0.36363637,0.72727275,1.8181819,1400729757191
19277.375,0.30397397,-0.30221364,9.261849,-0.72727275,-0.36363637,1.4545455,1400729757215
19294.953,0.12859635,-0.67991716,9.054718,0.0,0.0,1.0909091,1400729757217
19312.531,-0.12371004,0.081305936,9.585302,-0.36363637,0.0,1.0909091,1400729757249
19330.11,-0.042501055,0.18827766,9.479839,-0.36363637,0.0,0.72727275,1400729757250
19347.688,-0.06050857,-0.14056607,9.433577,-0.36363637,0.0,0.36363637,1400729757286
19365.266,0.061080433,0.20668004,9.439723,0.0,-0.36363637,-0.36363637,1400729757288
19382.844,0.23929548,0.18041302,9.526628,0.0,-0.36363637,-0.36363637,1400729757321
19400.422,-0.0013902952,0.07794044,9.3139105,0.0,0.0,1.0909091,1400729757356
19418.0,0.121587545,-0.54382855,9.531592,0.0,-0.36363637,0.36363637,1400729757357
19435.578,0.23829849,-0.1041039,9.142412,0.0,-0.36363637,0.36363637,1400729757359
19453.156,0.11529854,-0.029130476,9.417391,-0.36363637,-0.36363637,0.36363637,1400729757390
19470.734,0.09300572,0.14578736,9.44636,0.36363637,0.0,0.72727275,1400729757392
19505.89,-0.11510566,0.08250872,9.405276,0.0,0.0,0.72727275,1400729757511
19523.469,0.22909747,0.03118791,9.399268,-0.72727275,-0.72727275,0.0,1400729757512
19541.047,0.2480806,0.23627277,9.4193325,0.0,0.0,0.72727275,1400729757512
19558.625,0.020020202,0.038013596,9.3317,0.0,-0.36363637,0.36363637,1400729757512
19576.203,0.051929943,0.06296819,9.422629,0.36363637,0.36363637,0.72727275,1400729757513
19593.781,0.18664767,0.16670097,9.456469,-0.36363637,-0.36363637,0.36363637,1400729757514
19611.36,0.30170012,0.14768776,9.484367,-0.36363637,-0.36363637,0.72727275,1400729757547
19628.938,0.081820436,0.18470657,9.408417,-0.72727275,-1.4545455,-1.4545455,1400729757549
19646.516,-0.07150534,-0.08991352,9.426219,-0.36363637,0.36363637,-0.36363637,1400729757588
19664.094,0.06743551,-0.67286897,9.195683,0.36363637,0.0,0.0,1400729757589
19681.672,0.027446851,0.2263583,9.221044,0.36363637,-0.36363637,1.0909091,1400729757620
19699.25,0.090806946,-0.4876523,9.634709,-0.36363637,0.0,1.0909091,1400729757655
19716.828,0.18663795,0.22035553,9.509151,0.0,-0.36363637,1.0909091,1400729757656
19734.406,0.017886294,0.24160527,9.321901,0.36363637,0.72727275,1.0909091,1400729757660
19751.984,0.42806613,-0.09216894,9.381111,-0.36363637,0.0,1.0909091,1400729757694
19769.563,0.23121001,-0.05436376,9.52497,0.0,0.72727275,0.36363637,1400729757697
19787.14,0.21010074,-0.09878057,9.45296,-0.72727275,-1.0909091,0.72727275,1400729757728
19804.719,0.1594955,-0.33804733,9.361503,0.0,0.36363637,1.4545455,1400729757729
19822.297,0.025088718,-0.053462528,9.747076,-0.72727275,-0.36363637,0.0,1400729757764
19839.875,-0.10457726,-0.013573482,9.320367,0.0,0.0,0.36363637,1400729757767
19857.453,0.13565958,-0.063839674,9.335451,-0.72727275,-0.72727275,0.72727275,1400729757798
19875.031,0.10294331,0.15400702,9.406671,0.72727275,0.36363637,0.72727275,1400729757800
19892.61,0.012000801,-0.03529833,9.498116,-0.36363637,0.0,0.0,1400729757833
19910.188,-8.441859E-4,0.2204495,9.511031,-0.36363637,0.0,0.0,1400729757836
19927.766,0.1151042,-0.008671067,9.418415,0.0,-0.36363637,0.0,1400729757868
19945.344,0.18868247,-0.015930085,9.477317,-0.36363637,-0.36363637,0.36363637,1400729757901
19962.922,0.020715958,-0.11944161,9.243821,-0.36363637,-0.36363637,1.0909091,1400729757902
19980.5,0.028113455,0.22986673,9.291212,-0.36363637,-0.36363637,0.0,1400729757908
19998.078,0.10496644,0.03576141,9.490739,0.0,0.0,0.72727275,1400729757930
20015.656,0.010644273,0.08645572,9.484217,0.0,0.0,0.72727275,1400729757966
20033.234,0.019516848,0.1857403,9.429091,0.0,0.0,0.72727275,1400729757968
20050.813,-0.05190808,-0.11790145,9.274624,0.0,0.0,0.36363637,1400729758000
20068.39,0.12433243,0.23212017,9.540362,0.0,0.0,0.72727275,1400729758002
20085.969,0.18679926,-0.1439942,9.160933,0.36363637,0.0,0.72727275,1400729758004
20103.547,0.16516139,0.09881753,9.323289,0.0,0.0,0.36363637,1400729758036
20121.125,0.07063322,0.2343567,9.381012,0.36363637,0.72727275,0.72727275,1400729758070
20138.703,-0.032330256,-0.038580287,9.2283945,0.36363637,0.36363637,0.72727275,1400729758073
20156.281,0.029940298,0.14281145,9.386841,0.36363637,0.36363637,1.0909091,1400729758075
20173.86,0.116037056,0.103650086,9.6240225,0.0,0.36363637,0.0,1400729758106
20191.438,0.06282954,0.022545356,9.430499,-0.36363637,0.0,0.0,1400729758141
20209.016,-0.13717693,0.08673441,9.285708,0.0,-0.72727275,0.0,1400729758141
20226.594,-0.019329792,-0.10016933,9.425185,-0.36363637,0.0,-0.72727275,1400729758172
20244.172,-0.021926241,0.025799952,9.29151,0.0,0.36363637,-0.72727275,1400729758173
20261.75,-0.01034644,-0.086230814,9.295792,0.0,0.0,-1.4545455,1400729758217
20279.328,0.1347792,0.060420398,9.371674,-0.36363637,0.0,-0.36363637,1400729758222
20296.906,0.25034082,-0.13851227,9.270571,-0.36363637,-0.36363637,0.0,1400729758225
20314.484,0.15453777,0.19439852,9.398174,0.0,0.0,0.0,1400729758236
20332.063,0.16573276,0.10182476,9.383434,-0.36363637,0.0,-0.36363637,1400729758267
20349.64,0.2271754,0.117741995,9.293615,0.0,0.0,0.36363637,1400729758299
20367.219,0.12775095,-0.22249767,9.427598,-0.72727275,-0.36363637,-0.36363637,1400729758302
20384.797,0.11489819,0.076173805,9.482659,0.36363637,0.0,0.36363637,1400729758302
20402.375,-0.09389533,0.095234014,9.455701,-0.36363637,0.0,0.0,1400729758336
20419.953,0.052996896,-0.03882765,9.427528,0.0,0.0,-1.4545455,1400729758371
20437.531,0.020690693,0.020060213,9.380796,0.0,0.36363637,0.36363637,1400729758373
20455.11,0.15629658,-0.043390706,9.336267,-0.72727275,0.36363637,0.0,1400729758407
20472.688,0.08252203,-0.0049413694,9.288928,-0.36363637,0.0,0.0,1400729758409
20490.266,0.19677572,0.17592305,9.436829,-0.36363637,-0.36363637,0.36363637,1400729758441
20507.844,0.25086558,0.1220368,9.583593,-0.36363637,0.0,0.36363637,1400729758443
20525.422,0.15660754,-0.18138891,9.229364,0.0,-0.36363637,0.72727275,1400729758477
20543.0,0.11134557,0.21859285,9.269816,-0.36363637,0.36363637,0.36363637,1400729758478
20560.578,0.08232768,0.015518039,9.289952,0.0,0.36363637,0.36363637,1400729758479
20578.156,0.1984296,-0.008712834,9.41758,0.0,0.0,0.36363637,1400729758511
20595.734,0.65759385,-0.10100989,9.408374,0.0,0.36363637,-0.36363637,1400729758547
20613.313,-0.27801993,-0.6914672,10.048207,-0.36363637,-0.72727275,-0.36363637,1400729758548
20630.89,0.13651665,-0.059328824,9.425669,0.36363637,-0.36363637,0.36363637,1400729758549
20648.469,-0.002340642,0.06219748,9.203134,-0.36363637,-0.72727275,0.0,1400729758582
20666.047,-0.06276491,0.21275716,9.561266,0.36363637,0.0,0.72727275,1400729758619
20683.625,0.116165325,-0.078274176,9.454925,0.0,0.36363637,0.72727275,1400729758620
20701.203,0.20939526,0.112329185,9.593522,0.0,0.0,0.36363637,1400729758649
20718.781,-0.28899774,0.59227824,9.192504,0.36363637,-1.4545455,-5.818182,1400729758659
20736.36,0.21815124,-0.19716321,9.11796,0.0,-3.6363637,-2.909091,1400729758690
20753.938,-0.6365961,-0.6972207,15.851505,9.818182,12.363636,-13.090909,1400729758692
20771.516,1.3676858,-0.85325575,9.87366,-2.909091,1.8181819,2.1818182,1400729758694
20789.094,-0.20893297,-0.11011981,10.246583,-0.36363637,1.8181819,0.36363637,1400729758729
20806.672,0.24963924,0.051135674,9.39006,6.181818,9.454545,0.72727275,1400729758730
20824.25,-0.14620498,-0.20670898,9.131126,2.909091,6.181818,0.36363637,1400729758749
20841.828,-0.001225102,0.21844469,9.470935,-0.36363637,0.0,1.0909091,1400729758783
20859.406,0.08336937,0.053224027,9.431828,0.0,0.36363637,0.0,1400729758784
20876.984,0.15733828,-0.0056847176,9.478143,0.36363637,0.36363637,0.36363637,1400729758821
20894.563,0.030554427,-0.09026134,9.215181,0.36363637,0.72727275,0.72727275,1400729758832
20912.14,-0.17748503,-0.024267845,9.310561,-0.36363637,0.0,-0.72727275,1400729758857
20929.719,0.061982192,-0.03562004,9.2876,0.36363637,0.72727275,0.72727275,1400729758858
20947.297,-0.09511194,-0.029321667,9.209485,0.36363637,0.36363637,1.4545455,1400729758888
20964.875,0.038437787,0.20789848,9.260011,0.0,0.72727275,1.0909091,1400729758922
20982.453,0.043212842,0.15784238,9.68746,0.0,-0.72727275,0.72727275,1400729758924
21000.031,-0.09416353,-0.0028477928,9.330799,0.0,0.36363637,0.72727275,1400729758927
21017.61,-0.021665817,0.1668054,9.458557,0.0,0.0,0.36363637,1400729758963
21035.188,0.1766343,0.050671015,9.380767,-0.36363637,0.0,0.36363637,1400729758964
21052.766,-0.053777676,0.20523386,9.410799,-0.36363637,0.0,0.0,1400729758993
21070.344,-0.030250764,0.058293514,9.533217,-0.36363637,0.0,0.36363637,1400729758994
21087.922,-0.021838784,0.0692248,9.343679,-0.36363637,0.0,0.0,1400729759027
21105.5,-0.1253231,0.040592715,9.383283,-0.36363637,-0.36363637,0.36363637,1400729759061
21123.078,-0.013945708,0.31373006,9.335826,-0.36363637,0.0,0.36363637,1400729759062
21140.656,-0.03573129,0.31945938,9.24633,-0.72727275,-0.36363637,0.0,1400729759070
21158.234,-0.06399512,0.16331784,9.388805,0.0,0.36363637,0.36363637,1400729759104
21175.813,0.083287746,-0.022393547,9.348047,0.36363637,0.72727275,0.72727275,1400729759107
21193.39,-0.06445766,0.085695446,9.26493,0.0,0.36363637,0.72727275,1400729759139
21210.969,-0.052524153,0.12590224,9.4568205,0.36363637,0.36363637,0.72727275,1400729759140
21228.547,0.020138752,-0.09025612,9.215286,0.0,0.36363637,0.72727275,1400729759153
21246.125,0.054442823,-0.12788776,9.483061,-0.72727275,-0.36363637,0.0,1400729759185
21263.703,0.010850279,0.0016108468,9.419972,0.72727275,0.72727275,0.72727275,1400729759194
21281.281,0.0013830073,0.028089942,9.54139,-0.36363637,-0.72727275,1.0909091,1400729759205
21298.86,-0.12395297,-0.1562777,9.323425,0.36363637,0.0,0.36363637,1400729759234
21316.438,0.011056284,-0.08323402,9.355728,-0.36363637,0.36363637,0.72727275,1400729759268
21334.016,-0.011728232,0.17502506,9.418868,-0.36363637,0.0,0.36363637,1400729759269
21351.594,-0.1781672,0.058070995,9.324685,-0.36363637,0.0,0.0,1400729759276
21369.172,-0.019529967,-0.04751719,9.457819,-0.36363637,0.0,0.0,1400729759310
21386.75,0.18654856,0.18766159,9.467518,0.0,0.36363637,0.72727275,1400729759311
21404.328,0.12679866,-0.22750972,9.327356,0.36363637,0.0,0.36363637,1400729759344
21421.906,-0.16692361,0.22354028,9.572846,-0.36363637,0.0,0.0,1400729759356
21439.484,-0.031791918,0.14685242,9.467661,-0.36363637,0.0,0.36363637,1400729759363
21457.063,0.08230825,0.122827135,9.395318,-0.72727275,0.0,0.36363637,1400729759398
21474.64,0.17586857,0.06812319,9.321648,0.0,0.0,0.36363637,1400729759400
21492.219,0.09252957,0.14328133,9.396238,-0.36363637,-0.72727275,-0.36363637,1400729759431
21509.797,-0.11695388,0.287604,9.4255495,0.0,0.36363637,0.72727275,1400729759433
21527.375,0.01876862,0.10661429,9.275143,-0.72727275,-0.72727275,0.0,1400729759466
21544.953,-0.020977836,0.052273825,9.412824,0.36363637,0.72727275,0.72727275,1400729759502
21562.531,0.13381135,0.14125562,9.355724,0.36363637,0.0,0.0,1400729759503
21580.11,0.061109584,0.04571639,9.281674,0.36363637,0.36363637,0.72727275,1400729759504
21597.688,0.033222783,-0.0869585,9.48532,-0.36363637,0.0,0.72727275,1400729759543
21615.266,0.10360213,0.2004391,9.518986,-0.36363637,0.0,0.36363637,1400729759545
21632.844,0.13561876,0.16150944,9.556719,-0.36363637,0.0,0.36363637,1400729759554
21650.422,-0.1226217,-0.13852991,9.474299,-0.36363637,-0.36363637,0.36363637,1400729759591
21668.0,-0.113850184,-0.0075537963,9.440761,0.0,0.0,0.36363637,1400729759592
21685.578,0.0822033,0.17598048,9.437977,0.0,0.0,0.36363637,1400729759624
21703.156,-0.08276641,-0.15880461,9.272887,0.0,0.0,0.36363637,1400729759625
21720.734,-0.11589275,0.2180009,9.462059,0.0,0.0,0.36363637,1400729759659
21738.313,0.095300935,0.10416173,9.634255,0.0,0.36363637,0.72727275,1400729759659
21755.89,0.0949686,-0.16611584,9.330745,-0.36363637,0.0,0.36363637,1400729759692
21773.469,0.039220996,0.09386812,9.224301,0.0,0.36363637,0.72727275,1400729759732
21791.047,-0.029078864,-0.096655674,9.495458,-0.72727275,-0.72727275,-0.36363637,1400729759737
21808.625,0.10333394,0.10235729,9.394085,0.0,0.36363637,0.72727275,1400729759739
21826.203,0.07487771,-0.04405574,9.527048,0.0,0.0,0.72727275,1400729759760
21843.781,-0.21088347,0.27591768,9.395905,0.36363637,0.0,0.72727275,1400729759793
21861.36,0.042002074,0.0010939788,9.409635,0.36363637,0.0,0.72727275,1400729759795
21878.938,0.0014024418,-0.079219155,9.436025,-0.36363637,0.0,0.36363637,1400729759797
21896.516,0.21725725,0.002213231,9.227938,-0.36363637,-0.36363637,0.0,1400729759835
21914.094,0.06020199,0.3202092,9.465408,0.0,0.0,0.36363637,1400729759863
21931.672,-0.21995427,0.21855432,9.473127,-0.36363637,0.0,0.0,1400729759864
21949.25,0.09338858,0.13706127,9.475919,0.36363637,0.36363637,0.72727275,1400729759900
21966.828,0.08976793,0.12874638,9.105539,0.0,-0.36363637,0.36363637,1400729759900
21984.406,-0.096106976,0.2017463,9.341048,0.0,-0.36363637,0.36363637,1400729759935
22001.984,-0.062263507,0.07576135,9.474411,0.0,0.36363637,0.72727275,1400729759938
22019.563,-0.02107501,0.06250353,9.413336,0.36363637,0.36363637,0.72727275,1400729759970
22037.14,-0.07315921,0.09472237,9.445468,-0.36363637,0.0,0.0,1400729759972
22054.719,0.2709351,0.11801672,9.503192,0.0,0.36363637,0.72727275,1400729759973
22072.297,-0.09436176,0.039073437,9.352898,-0.72727275,-0.72727275,0.0,1400729760006
22089.875,0.04923049,0.23135991,9.321075,0.36363637,0.36363637,1.0909091,1400729760040
22107.453,-0.082711995,0.0670457,9.504179,0.36363637,0.36363637,0.72727275,1400729760046
22125.031,0.19670187,0.05738184,9.310902,0.36363637,0.36363637,0.72727275,1400729760047
22142.61,-0.09193439,-0.20593826,9.350622,0.36363637,0.36363637,0.72727275,1400729760220
22160.188,-0.11493074,0.16935842,9.509617,-0.36363637,-0.36363637,0.36363637,1400729760221
22177.766,-0.041216433,-0.06274851,9.357275,0.0,-0.36363637,0.0,1400729760221
22195.344,0.13419227,0.14326045,9.395822,0.0,-0.36363637,0.36363637,1400729760222
22212.922,-0.0315898,0.08346937,9.424489,-0.36363637,-0.36363637,0.72727275,1400729760222
22230.5,0.082236335,-0.0064449855,9.258856,0.36363637,0.36363637,0.72727275,1400729760223
22248.078,-0.112699665,-0.04446297,9.518904,0.0,0.0,0.36363637,1400729760223
22265.656,-0.2204207,0.16239375,9.370324,-0.36363637,0.0,0.36363637,1400729760224
22283.234,-0.011314278,-0.005395587,9.279843,-0.36363637,0.0,0.36363637,1400729760226
22300.813,0.086270936,-0.17855074,9.49021,-0.36363637,-0.72727275,0.36363637,1400729760252
22318.39,-0.14645374,0.11421591,9.4271755,-0.36363637,-0.36363637,0.36363637,1400729760254
22335.969,0.01981614,0.11212755,9.385408,0.0,0.36363637,0.72727275,1400729760259
22353.547,-0.10659845,0.09394121,9.225763,-0.72727275,-0.72727275,-0.36363637,1400729760298
22371.125,-0.007965714,-0.073700674,9.546394,0.0,0.0,1.4545455,1400729760298
22388.703,0.22832592,0.08083282,9.371758,-0.72727275,-0.72727275,-0.36363637,1400729760329
22406.281,-0.09448614,0.19953588,9.500921,0.36363637,0.0,0.72727275,1400729760330
22423.86,0.019913312,0.10189785,9.384895,-0.36363637,0.36363637,0.36363637,1400729760362
22441.438,-0.17691173,-0.031991523,9.360169,-0.36363637,-0.72727275,0.36363637,1400729760364
22459.016,0.18532419,0.106029555,9.263448,-0.36363637,0.0,0.0,1400729760380
22476.594,-0.06273188,0.030331684,9.382144,0.0,-0.36363637,0.36363637,1400729760416
22494.172,0.019818084,0.10139664,9.374871,0.0,-0.36363637,0.36363637,1400729760418
22511.75,-0.021490907,0.25365508,9.562898,0.0,-0.36363637,0.72727275,1400729760451
22529.328,-0.011615512,0.07894807,9.334064,0.0,0.0,0.72727275,1400729760452
22546.906,-0.1368893,0.07750711,9.305244,-0.36363637,-0.36363637,0.36363637,1400729760485
22564.484,0.062862575,-0.15988012,9.251377,0.0,0.0,0.72727275,1400729760486
22582.063,8.1357657E-4,0.014351799,9.47071,-0.36363637,0.0,0.36363637,1400729760521
22599.64,0.14140709,0.44864273,9.381018,0.0,0.0,0.72727275,1400729760527
22617.219,-0.063299365,0.0058626328,9.300926,-0.72727275,-0.72727275,0.0,1400729760562
22634.797,0.08214111,-0.006946191,9.248832,-0.36363637,0.0,1.0909091,1400729760563
22652.375,-0.2090294,0.03862966,9.344022,0.0,0.0,0.72727275,1400729760596
22669.953,-0.062273223,0.1294159,9.527094,0.0,0.36363637,0.72727275,1400729760599
22687.531,-0.042277556,0.0068546017,9.3207655,0.36363637,0.36363637,0.72727275,1400729760637
22705.11,0.11566197,0.06945253,9.552316,0.36363637,0.36363637,0.36363637,1400729760639
22722.688,0.16525856,0.08858782,9.322777,0.0,0.0,0.36363637,1400729760644
22740.266,-0.1040156,0.0430883,9.433194,-0.36363637,0.0,0.0,1400729760678
22757.844,-0.030629735,0.045557782,9.482584,0.0,0.0,0.36363637,1400729760689
22775.422,-0.05135614,-0.0075851213,9.440134,-0.36363637,-0.36363637,0.0,1400729760721
22793.0,0.06090358,0.13056126,9.345919,0.0,0.72727275,0.72727275,1400729760723
22810.578,0.0632843,0.1430914,9.596521,0.0,0.36363637,0.72727275,1400729760780
22828.156,0.081439525,0.18270175,9.36832,0.36363637,0.0,0.72727275,1400729760794
22845.734,-0.06196616,0.012879509,9.441263,0.72727275,0.0,0.36363637,1400729760795
22863.313,0.07169239,0.1754845,9.428058,0.0,0.0,0.72727275,1400729760834
22880.89,-0.0021657315,0.14904717,9.307474,0.36363637,0.36363637,0.72727275,1400729760835
22898.469,0.16515943,0.109548435,9.333826,0.0,0.0,0.36363637,1400729760866
22916.047,-0.16561566,-0.15625681,9.323843,-0.36363637,0.0,0.36363637,1400729760866
22933.625,-0.047892913,-0.1826981,9.611344,0.36363637,0.0,0.72727275,1400729760867
22951.203,0.08365505,0.054727644,9.4619,0.0,0.0,0.72727275,1400729760897
22968.781,-0.031770542,0.028812407,9.351758,0.36363637,0.0,0.72727275,1400729760899
22986.36,0.062625475,0.09665932,9.484207,0.36363637,0.36363637,1.0909091,1400729760932
23003.938,0.10384896,-0.10975488,9.233474,-0.72727275,0.36363637,0.36363637,1400729760933
23021.516,0.052520752,-0.041333675,9.377408,-0.36363637,0.0,0.36363637,1400729760965
23039.094,0.021147402,0.12987533,9.536283,-0.36363637,0.0,0.0,1400729760966
23056.672,-0.13670856,0.13216408,9.377975,-0.36363637,0.0,0.36363637,1400729761001
23074.25,0.009196403,0.18624674,9.43922,0.0,0.0,0.72727275,1400729761003
23091.828,-0.14749737,0.08724083,9.295837,0.0,0.0,0.36363637,1400729761048
23109.406,0.14538144,0.08287941,9.41269,-0.36363637,0.36363637,0.0,1400729761049
23126.984,-0.04294416,0.003346164,9.250597,0.0,-0.36363637,0.72727275,1400729761070
23144.563,0.10383923,-0.056100335,9.286157,0.0,0.36363637,0.72727275,1400729761071
23162.14,0.06450479,-0.28013054,9.295348,0.0,-0.36363637,-0.36363637,1400729761103
23179.719,0.08374834,0.06595976,9.482461,0.0,0.0,0.72727275,1400729761109
23197.297,0.11297612,0.16272788,9.377007,-0.36363637,0.0,0.36363637,1400729761145
23214.875,-0.05453951,0.20122421,9.330606,0.36363637,0.0,0.72727275,1400729761145
23232.453,0.09561383,-0.044567388,9.516815,0.36363637,0.0,0.72727275,1400729761150
23250.031,0.32005358,0.14537689,9.234068,0.0,0.0,0.72727275,1400729761182
23267.61,-0.12513652,0.063056946,9.424404,0.36363637,0.36363637,0.72727275,1400729761193
23285.188,-0.012280172,0.064708725,9.253358,0.0,0.36363637,0.36363637,1400729761199
23302.766,-0.06397763,0.066739656,9.293977,0.0,-0.36363637,0.36363637,1400729761232
23320.344,-0.091590405,-4.6156925E-5,9.590914,-0.36363637,-0.36363637,0.36363637,1400729761264
23337.922,-0.021906806,-0.08150914,9.186144,-0.36363637,0.0,0.36363637,1400729761266
23355.5,-8.169776E-4,0.07021677,9.363519,0.72727275,-0.36363637,0.36363637,1400729761273
23373.078,0.18694502,0.10381914,9.423322,-0.36363637,0.36363637,0.36363637,1400729761308
23390.656,0.14489752,0.12329702,9.404716,-0.36363637,0.0,0.36363637,1400729761311
23408.234,0.11469607,0.13955685,9.525831,0.0,0.0,0.36363637,1400729761343
23425.813,-0.022993194,0.1275958,9.28661,0.36363637,0.0,0.72727275,1400729761377
23443.39,-0.01181763,0.14233112,9.377234,-0.36363637,-0.72727275,0.36363637,1400729761381
23460.969,-0.08637928,0.31627265,9.386678,0.0,0.0,0.72727275,1400729761412
23478.547,0.11317241,0.13153756,9.365445,0.0,0.0,1.0909091,1400729761414
23496.125,0.011639319,-0.14461225,9.352653,0.36363637,0.0,0.36363637,1400729761446
23513.703,0.11277983,0.1939182,9.388568,0.0,0.0,0.72727275,1400729761448
23531.281,0.083633676,0.17276765,9.577802,0.0,0.36363637,0.72727275,1400729761451
23548.86,-0.07383165,0.123406656,9.406909,0.0,0.0,0.36363637,1400729761482
23566.438,-0.17652886,-0.040717613,9.3897295,0.0,0.72727275,0.0,1400729761515
23584.016,-0.08579042,0.22270168,9.351993,0.0,-0.36363637,0.0,1400729761516
23601.594,0.16804352,-0.025648141,9.487037,-0.36363637,-0.36363637,0.36363637,1400729761550
23619.172,0.18683425,0.1891652,9.49759,-0.36363637,-0.36363637,0.0,1400729761551
23636.75,-0.0712041,-0.17425719,9.371999,0.0,-0.36363637,0.72727275,1400729761583
23654.328,-0.11433605,0.043594725,9.443323,0.0,0.36363637,0.72727275,1400729761585
23671.906,-0.062455907,0.085489854,9.464899,0.0,0.0,0.0,1400729761620
23689.484,0.12379992,0.014494745,9.269486,-0.36363637,0.0,0.36363637,1400729761621
23707.063,-0.10422355,0.13866408,9.507976,-0.36363637,0.36363637,0.72727275,1400729761653
23724.64,0.13439633,0.069146484,9.3421135,0.36363637,0.0,0.72727275,1400729761655
23742.219,0.10477209,0.05622082,9.491763,0.36363637,0.36363637,0.36363637,1400729761690
23759.797,-0.023074819,0.05197822,9.202829,0.0,0.36363637,0.72727275,1400729761692
23777.375,-0.1369787,0.044813175,9.263611,0.0,0.0,0.72727275,1400729761723
23794.953,-0.020886494,0.074236855,9.443921,0.36363637,0.72727275,0.72727275,1400729761724
23812.531,-0.10515641,0.026342925,9.302369,0.36363637,0.36363637,0.36363637,1400729761758
23830.11,0.072285146,0.06045172,9.3723,0.0,0.0,0.72727275,1400729761760
23847.688,5.356633E-4,-0.030075457,9.398491,0.36363637,0.36363637,0.36363637,1400729761792
23865.266,0.011027132,0.07772963,9.513776,-0.36363637,-0.36363637,0.36363637,1400729761798
23900.422,-0.042378616,0.038546126,9.342351,-0.36363637,-0.36363637,0.36363637,1400729761896
23918.0,0.020406948,0.0078256875,9.340187,0.0,0.0,1.4545455,1400729761897
23935.578,0.040684413,-0.09177017,9.185004,0.36363637,0.36363637,0.36363637,1400729761897
23953.156,0.13534085,0.11708218,9.484501,0.0,0.36363637,0.72727275,1400729761897
23970.734,0.07268355,-0.034121647,9.317567,0.0,-0.36363637,0.0,1400729761898
23988.313,0.1034486,-0.0044506057,9.298743,0.36363637,0.36363637,0.72727275,1400729761931
24005.89,-0.2199465,0.17563069,9.430981,0.0,0.0,0.72727275,1400729761932
24023.469,-0.030040871,-0.048013177,9.4479,0.0,0.0,0.36363637,1400729761964
24041.047,0.14478092,0.24083582,9.510594,0.0,0.36363637,0.72727275,1400729761966
24058.625,-0.052419204,0.0727489,9.414162,0.0,0.36363637,0.72727275,1400729762001
24076.203,-0.021178013,0.10492597,9.445458,0.72727275,0.72727275,0.36363637,1400729762003
24093.781,0.030917853,0.008321672,9.350107,0.36363637,0.36363637,1.0909091,1400729762059
24111.36,-0.1154788,0.037580263,9.323033,0.36363637,0.0,0.36363637,1400729762061
24128.938,0.09234106,0.131548,9.365654,0.36363637,0.36363637,0.72727275,1400729762063
24146.516,0.07361835,0.0674686,9.512637,-0.36363637,-0.36363637,0.72727275,1400729762095
24164.094,-0.08373814,-0.05650756,9.278012,-0.36363637,-0.36363637,0.36363637,1400729762097
24181.672,-0.06312251,0.08198141,9.394731,-0.36363637,-0.36363637,0.36363637,1400729762098
24199.25,-0.022515105,0.11937091,9.326194,0.0,0.0,0.36363637,1400729762133
24216.828,-0.0630953,-0.06825133,9.247218,0.0,0.36363637,0.72727275,1400729762165
24234.406,0.019915257,0.091166936,9.374359,0.0,0.36363637,0.72727275,1400729762166
24251.984,-0.11625035,0.08722517,9.295524,-0.36363637,-0.36363637,0.0,1400729762210
24269.563,0.053148486,0.17679296,9.658308,0.0,-0.36363637,0.36363637,1400729762260
24287.14,0.092823036,0.101861306,9.384165,0.0,0.0,0.72727275,1400729762261
24304.719,-0.08522099,0.23643984,9.422674,0.36363637,0.0,0.36363637,1400729762261
24322.297,-1.6397855E-4,0.14884157,9.507443,0.0,0.36363637,0.72727275,1400729762264
24339.875,-0.072737485,-0.12862192,9.264297,0.0,0.36363637,0.72727275,1400729762266
24357.453,-0.105249695,0.01511081,9.281808,0.0,0.36363637,0.72727275,1400729762299
24375.031,0.04178635,0.1395934,9.526562,0.0,0.36363637,1.0909091,1400729762300
24392.61,0.11521497,-0.09401714,9.344147,0.0,0.36363637,0.72727275,1400729762334
24410.188,0.010348869,0.13860665,9.506826,0.0,0.0,0.72727275,1400729762335
24427.766,-0.061524995,0.20854191,9.681043,0.0,0.0,0.0,1400729762369
24445.344,-0.09302467,0.024628492,9.472161,-0.36363637,0.0,0.36363637,1400729762371
24462.922,-0.02125575,0.007846571,9.340605,-0.36363637,0.0,0.36363637,1400729762405
24480.5,0.0410148,0.18923831,9.499052,-0.36363637,-0.36363637,0.0,1400729762407
24498.078,0.15637432,0.053688686,9.441121,0.36363637,0.0,0.36363637,1400729762453
24515.656,0.083163366,0.1380689,9.496072,-0.36363637,-0.36363637,0.36363637,1400729762454
24533.234,0.10229808,0.03245857,9.2206,-0.36363637,0.0,0.0,1400729762484
24550.813,-0.0010968343,0.03652042,9.301837,0.0,0.0,0.36363637,1400729762486
24568.39,-0.020983668,0.084466554,9.444433,0.0,0.0,0.36363637,1400729762488
24585.969,0.08068547,0.13576847,9.245981,-0.36363637,-0.36363637,0.36363637,1400729762519
24603.547,-0.20741051,0.047150154,9.514432,0.0,0.36363637,0.72727275,1400729762530
24621.125,-0.10429157,-0.012069866,9.350439,0.0,0.36363637,0.72727275,1400729762565
24638.703,0.062916994,0.065970205,9.482669,0.0,0.72727275,1.0909091,1400729762566
24656.281,-0.011038307,0.049762577,9.362598,0.36363637,0.36363637,1.0909091,1400729762599
24673.86,0.009866893,0.16829336,9.488316,0.36363637,0.0,0.72727275,1400729762600
24691.438,-0.033531304,0.27733254,9.424202,0.36363637,0.72727275,1.0909091,1400729762643
24709.016,-0.07412122,0.14336486,9.397909,0.0,-0.36363637,0.36363637,1400729762645
24726.594,-0.06426915,0.09742877,9.295514,0.0,-0.36363637,0.0,1400729762675
24744.172,0.06118538,0.1535267,9.397064,-0.36363637,-0.36363637,0.0,1400729762677
24761.75,0.030618561,0.08193442,9.39379,0.0,0.0,0.36363637,1400729762679
24779.328,0.07561816,0.07799391,9.723144,-0.36363637,-0.36363637,0.72727275,1400729762713
24796.906,0.16524495,0.16370419,9.396533,0.36363637,0.36363637,0.72727275,1400729762746
24814.484,-0.06323912,0.19952022,9.500608,0.0,0.72727275,0.72727275,1400729762747
24832.063,0.031401772,-0.03209594,9.358081,0.0,0.72727275,0.36363637,1400729762780
24849.64,-0.04102792,-0.051015187,9.387859,0.0,0.0,0.72727275,1400729762782
24867.219,-0.13824777,0.20999207,9.301882,0.0,0.36363637,0.72727275,1400729762784
24884.797,-0.06264831,0.09521835,9.455387,-0.36363637,0.36363637,0.36363637,1400729762843
24902.375,-0.022235248,0.15306726,9.387876,-0.36363637,0.0,1.0909091,1400729762847
24919.953,-0.07371893,0.027329674,9.3221035,0.0,0.0,0.36363637,1400729762848
24937.531,-0.05220154,-0.07648143,9.286698,-0.36363637,0.0,0.72727275,1400729762876
24955.11,0.072949804,0.07469107,9.453005,0.0,0.72727275,0.72727275,1400729762877
24972.688,-0.011551378,0.25114384,9.512672,0.0,0.36363637,0.72727275,1400729762909
24990.266,-0.010264815,-0.0106132375,9.379572,-0.36363637,-0.72727275,0.36363637,1400729762915
25007.844,-0.16899727,0.09447374,9.236414,-0.36363637,0.0,0.0,1400729762948
25025.422,0.041625045,-0.022372663,9.348465,-0.36363637,0.0,0.0,1400729762957
25043.0,0.12490963,0.20293468,9.568897,-0.36363637,-0.36363637,0.0,1400729762996
25060.578,-0.114839405,0.19132143,9.540714,0.0,0.0,0.72727275,1400729762997
25078.156,-0.08470209,0.002865842,9.240991,-0.36363637,0.0,0.36363637,1400729763016
25095.734,0.031392053,0.021558609,9.410764,0.0,0.0,0.36363637,1400729763019
25113.313,0.09443998,0.121112704,9.565111,0.0,0.0,0.36363637,1400729763052
25130.89,0.16565308,0.015476272,9.289117,0.0,0.36363637,0.72727275,1400729763053
25148.469,0.011353632,-0.14611587,9.32258,-0.36363637,-0.36363637,0.36363637,1400729763088
25166.047,0.08268528,0.14629377,9.456488,0.0,0.0,0.72727275,1400729763089
25183.625,0.26069432,0.20487162,9.607636,-0.72727275,-0.36363637,-0.36363637,1400729763120
25201.203,0.07323355,0.086925596,9.493614,0.0,0.0,0.72727275,1400729763156
25218.781,-0.023671458,0.1884728,9.27966,-0.36363637,0.0,0.36363637,1400729763158
25236.36,0.0108736,-0.12716007,9.293533,0.0,0.0,0.72727275,1400729763160
25253.938,0.102945246,0.14327611,9.396134,0.36363637,0.0,0.72727275,1400729763191
25271.516,0.041135296,0.050237678,9.372101,-0.36363637,0.0,0.36363637,1400729763193
25289.094,0.05202323,0.0742003,9.44319,-0.36363637,0.0,0.0,1400729763225
25306.672,0.071877025,0.20867963,9.479715,0.0,0.0,0.36363637,1400729763225
25324.25,-0.17895623,0.20429409,9.392004,-0.36363637,-0.36363637,0.0,1400729763260
25341.828,0.042480163,-0.007130904,9.449219,0.0,0.72727275,1.0909091,1400729763260
25359.406,0.09436419,0.013302401,9.449721,0.0,0.36363637,0.36363637,1400729763293
25376.984,-0.3338329,0.07188745,9.396933,-0.36363637,0.0,0.36363637,1400729763339
25394.563,0.06252247,0.13908175,9.516329,-0.36363637,0.0,0.72727275,1400729763351
25412.14,0.19670187,0.05738184,9.310902,0.36363637,0.0,0.36363637,1400729763352
25429.719,0.11317435,0.12080666,9.354909,0.0,0.0,0.72727275,1400729763355
25447.297,0.020787865,0.009830509,9.380283,-0.72727275,-0.36363637,0.0,1400729763390
25464.875,0.009497638,0.10190307,9.385,0.0,0.36363637,0.36363637,1400729763392
25482.453,-0.06390572,0.19601178,9.43044,-0.72727275,-0.36363637,0.0,1400729763425
25500.031,-0.045554213,0.20443182,9.190677,0.0,0.0,0.72727275,1400729763426
25517.61,0.051356625,0.07069187,9.373021,0.72727275,-0.36363637,0.72727275,1400729763459
25535.188,0.029370867,0.1290733,9.31616,0.0,0.0,0.72727275,1400729763460
25552.766,-0.10631859,0.12763757,9.287445,0.0,0.0,0.36363637,1400729763491
25570.344,0.08452572,-0.015877876,9.478361,0.0,-0.36363637,0.36363637,1400729763497
25587.922,-0.09274287,0.04759393,9.523307,-0.36363637,0.0,0.36363637,1400729763534
25605.5,0.104385346,0.08640873,9.483276,-0.36363637,-0.36363637,0.36363637,1400729763535
25623.078,-0.019728199,-0.0055959625,9.479918,0.0,-0.36363637,0.72727275,1400729763564
25640.656,0.07420722,-0.02610236,9.477953,0.0,0.36363637,0.72727275,1400729763565
25658.234,0.0937695,0.13906609,9.516016,-0.36363637,0.0,0.36363637,1400729763597
25675.813,0.055509776,-0.2296836,9.487961,-0.36363637,0.0,1.4545455,1400729763599
25693.39,-0.009211465,-0.037292708,9.458227,-0.36363637,0.0,0.36363637,1400729763634
25710.969,0.02088115,0.021062624,9.400845,0.36363637,0.0,0.72727275,1400729763636
25728.547,0.10354189,0.006781509,9.3193035,-0.36363637,-0.36363637,-0.36363637,1400729763668
25746.125,0.124163345,0.11307775,9.404412,0.0,0.0,1.0909091,1400729763705
25763.703,-0.060252037,0.021901205,9.621697,-0.72727275,-0.72727275,-0.36363637,1400729763707
25781.281,0.18616182,0.21784951,9.459031,0.0,0.0,1.0909091,1400729763707
25798.86,-0.114924915,0.13716568,9.478007,-0.72727275,-0.72727275,0.0,1400729763740
25816.438,0.092815265,0.14478494,9.4263115,0.0,0.36363637,0.72727275,1400729763740
25834.016,0.019639285,0.036008775,9.291604,0.0,-0.36363637,0.36363637,1400729763772
25851.594,-0.008809171,-0.1533279,9.3824215,0.0,-0.36363637,0.72727275,1400729763773
25869.172,0.082049765,-0.028909216,9.217734,-0.36363637,0.0,0.0,1400729763806
25886.75,0.09227692,-0.040647756,9.187045,-0.36363637,-0.36363637,0.36363637,1400729763807
25904.328,-0.29305834,0.23905028,9.474883,0.0,-0.36363637,0.36363637,1400729763842
25921.906,0.08340435,-0.13993235,9.242169,0.0,0.36363637,0.72727275,1400729763879
25939.484,-0.12281994,-0.09660868,9.496398,-0.36363637,0.0,0.36363637,1400729763880
25957.063,-0.1858873,-0.08885368,9.447416,-0.36363637,-0.36363637,0.0,1400729763886
25974.64,-0.11355478,-0.05970473,9.41815,-0.36363637,0.0,0.36363637,1400729763920
25992.219,0.10640264,3.5585157E-4,9.598954,-0.36363637,0.72727275,0.72727275,1400729763921
26009.797,0.09437197,-0.02962124,9.407576,0.0,0.36363637,0.72727275,1400729763956
26027.375,-0.030820195,0.04455537,9.462536,0.0,0.0,0.72727275,1400729763966
26044.953,0.020193169,0.13559419,9.446578,0.0,0.0,1.0909091,1400729764002
26062.531,-0.11626784,0.18380335,9.390353,0.0,0.36363637,0.36363637,1400729764003
26080.11,-0.024623748,0.18346076,9.1794195,0.0,0.0,0.72727275,1400729764005
26097.688,0.008329624,0.23539044,9.401687,0.36363637,-0.36363637,0.72727275,1400729764035
26115.266,-0.09197326,0.008679931,9.561354,0.0,0.36363637,0.0,1400729764069
26132.844,-0.1253406,0.13717091,9.478112,-0.36363637,0.0,0.36363637,1400729764071
26150.422,-0.020769889,-0.04330195,9.338042,0.0,-0.36363637,0.36363637,1400729764076
26168.0,-0.009499095,-0.028065413,9.438692,-0.36363637,-0.36363637,0.36363637,1400729764113
26185.578,0.051447965,0.09265489,9.404119,0.0,-0.36363637,0.72727275,1400729764115
26203.156,-0.17981718,0.22124507,9.322861,0.36363637,0.36363637,0.72727275,1400729764149
26220.734,0.10285002,0.1427749,9.38611,0.0,0.36363637,0.36363637,1400729764149
26238.313,-0.041313607,-0.052518804,9.357787,0.0,-0.36363637,0.36363637,1400729764179
26255.89,-0.07631926,0.17476077,9.209501,0.0,0.0,0.72727275,1400729764179
26273.469,0.05395696,-0.07673924,9.485623,-0.36363637,-0.36363637,0.0,1400729764214
26291.047,0.017890181,0.22014345,9.300828,0.0,0.0,0.72727275,1400729764214
26308.625,0.009495694,0.11263398,9.395536,-0.36363637,-0.72727275,0.0,1400729764249
26326.203,0.051846374,-0.0019184744,9.349385,0.0,0.36363637,1.0909091,1400729764250
26343.781,-0.02282217,0.2359073,9.412024,-0.72727275,-1.0909091,-0.36363637,1400729764284
26361.36,0.020115431,0.0385148,9.341724,0.0,0.36363637,0.36363637,1400729764285
26378.938,-0.07404543,0.25117517,9.513299,-0.36363637,0.0,0.36363637,1400729764317
26396.516,0.13720073,-0.15239857,9.401008,0.36363637,0.36363637,0.0,1400729764318
26414.094,-0.040091176,0.039844144,9.572393,-0.36363637,0.0,0.72727275,1400729764354
26431.672,-1.4454406E-4,0.041532476,9.402078,-0.36363637,-0.36363637,0.0,1400729764355
26449.25,0.1970925,0.0057321107,9.298316,-0.72727275,-0.36363637,0.36363637,1400729764386
26466.828,0.020197056,0.114132375,9.425505,-0.36363637,-0.36363637,1.4545455,1400729764388
26484.406,-0.06197782,0.077264965,9.504483,0.0,1.0909091,0.72727275,1400729764421
26501.984,0.07295758,0.031767428,9.410859,0.0,0.0,0.72727275,1400729764422
26519.563,-0.08518018,0.011090725,9.2014065,-0.36363637,0.0,0.36363637,1400729764458
26537.14,-0.16746,0.027376661,9.323044,0.36363637,0.36363637,0.72727275,1400729764459
26554.719,0.1773864,0.108335204,9.513643,-0.72727275,0.0,0.36363637,1400729764495
26572.297,-0.09235807,0.02813693,9.542331,0.0,0.0,0.72727275,1400729764527
26589.875,0.041407377,0.12685767,9.475929,-0.72727275,-0.72727275,0.0,1400729764527
26607.453,-0.062076934,0.09822558,9.5155325,0.36363637,0.36363637,0.72727275,1400729764527
26625.031,-0.06254336,0.042065006,9.412728,0.0,0.72727275,0.72727275,1400729764559
26642.61,0.16631773,0.02971562,9.3698225,0.36363637,0.36363637,1.0909091,1400729764625
26660.188,6.146159E-5,-0.043312393,9.337833,0.0,0.0,0.36363637,1400729764626
26677.766,-0.019430852,-0.0684778,9.446771,0.36363637,0.36363637,0.72727275,1400729764627
26695.344,0.04259677,-0.12466971,9.343341,0.0,0.0,0.36363637,1400729764629
26712.922,-0.17760941,0.1361946,9.458586,-0.36363637,-0.36363637,0.36363637,1400729764658
26730.5,0.01036053,0.07422119,9.443607,-0.36363637,-0.72727275,0.36363637,1400729764660
26748.078,0.0846054,0.07047061,9.572678,0.0,0.0,0.36363637,1400729764694
26765.656,0.13426223,0.28326347,9.542821,0.0,0.0,0.72727275,1400729764695
26783.234,0.19717802,0.059887864,9.361023,0.0,0.0,0.72727275,1400729764727
26800.813,-0.08328337,0.06403847,9.444035,0.0,0.0,0.36363637,1400729764729
26818.39,0.03349681,-0.021069422,9.578611,0.0,0.36363637,0.72727275,1400729764766
26835.969,-0.102865085,0.006179125,9.511337,0.0,0.36363637,0.72727275,1400729764767
26853.547,-0.05447149,0.35195816,9.488143,0.0,0.36363637,0.72727275,1400729764798
26871.125,0.18548355,0.27872652,9.452082,0.0,0.0,0.36363637,1400729764837
26888.703,0.2695222,0.024651358,9.2685375,0.72727275,-0.36363637,0.72727275,1400729764837
26906.281,0.14372757,0.2675153,9.431938,0.0,0.36363637,0.72727275,1400729764838
26923.86,0.10229808,0.03245857,9.2206,0.0,0.0,0.72727275,1400729764867
26941.438,0.09234884,0.088624366,9.323507,0.36363637,0.36363637,1.0909091,1400729764869
26959.016,0.059632562,0.30647105,9.394727,0.36363637,0.36363637,0.72727275,1400729764903
26976.594,0.052205913,0.118126355,9.505384,-0.36363637,0.0,0.36363637,1400729764905
26994.172,0.030678809,0.275592,9.5934725,0.0,0.0,0.36363637,1400729764937
27011.75,-0.041226152,-0.009093959,9.409958,-0.36363637,-0.36363637,0.72727275,1400729764938
27029.328,0.022292094,0.12515889,9.646035,-0.36363637,-0.36363637,0.72727275,1400729764971
27046.906,0.093798645,-0.021897562,9.357967,0.36363637,0.0,0.72727275,1400729764973
27064.484,-0.073452674,0.13614239,9.457541,-0.36363637,0.0,0.36363637,1400729764983
27082.063,-0.052411433,0.029825259,9.372015,-0.36363637,0.0,0.36363637,1400729765016
27099.64,-0.07277441,0.07526537,9.464491,0.0,0.0,0.72727275,1400729765023
27117.219,0.031390112,0.03228952,9.421301,-0.36363637,-0.36363637,-0.36363637,1400729765056
27134.797,0.049599748,0.29775017,9.424392,0.0,0.0,0.36363637,1400729765063
27152.375,0.103538,0.02824333,9.340377,-0.72727275,-0.72727275,0.0,1400729765097
27169.953,-0.15541378,-0.028493527,9.430129,-0.36363637,0.0,0.36363637,1400729765149
27187.531,0.052233122,-0.03210638,9.357872,0.0,0.0,0.72727275,1400729765151
27205.11,0.07177791,0.22964025,9.490765,0.0,0.0,0.72727275,1400729765151
27222.688,-0.065135926,0.14657247,9.25798,0.0,0.36363637,0.72727275,1400729765168
27240.266,-0.012095544,0.09790387,9.3050165,0.36363637,0.36363637,1.0909091,1400729765170
27257.844,-3.4471936E-4,0.094184615,9.434712,0.0,-0.36363637,0.72727275,1400729765203
27275.422,-0.05406142,0.19299932,9.370191,-0.36363637,-0.36363637,0.36363637,1400729765205
27293.0,-0.06419141,0.19450817,9.400368,-0.36363637,-0.36363637,0.0,1400729765207
27310.578,0.042182814,0.05575094,9.482366,-0.36363637,0.0,0.36363637,1400729765240
27328.156,3.8140195E-5,0.085458525,9.4642725,0.0,0.36363637,0.36363637,1400729765276
27345.734,0.18897204,-0.03588829,9.486316,0.0,0.36363637,0.36363637,1400729765284
27363.313,0.11547151,0.06845012,9.532268,-0.36363637,-0.36363637,0.36363637,1400729765285
27380.89,-0.14537512,-0.05196539,9.368855,0.0,1.0909091,1.0909091,1400729765309
27398.469,-0.05232398,0.0732501,9.424186,-0.36363637,0.0,0.36363637,1400729765344
27416.047,-0.16785063,0.079026386,9.335629,0.36363637,0.0,0.36363637,1400729765344
27433.625,-0.031675313,0.02931361,9.361782,0.0,0.0,0.72727275,1400729765379
27451.203,-0.041824736,0.13813154,9.497325,0.0,0.36363637,0.72727275,1400729765380
27468.781,-0.09678136,0.2411615,9.313025,0.0,1.0909091,1.4545455,1400729765413
